time_s,time_ms,gyro_x_deg_s,gyro_y_deg_s,gyro_z_deg_s,accel_x_g,accel_y_g,accel_z_g,GX_raw,GY_raw,GZ_raw,AX_raw,AY_raw,AZ_raw
0.000000,0.000000,-0.139846,-0.071354,-0.033918,-0.040139,0.951779,0.298063,-0.139846,-0.071354,-0.033918,-0.040139,0.951779,0.298063
0.001000,1.000000,-0.199127,-0.118560,-0.074477,-0.039899,0.952104,0.298068,-0.199127,-0.118560,-0.074477,-0.039899,0.952104,0.298068
0.002000,2.000000,-0.185794,-0.143092,-0.064623,-0.039747,0.952087,0.298254,-0.185794,-0.143092,-0.064623,-0.039747,0.952087,0.298254
0.003000,3.000000,0.017338,-0.015724,0.002439,-0.039988,0.951996,0.298856,0.017338,-0.015724,0.002439,-0.039988,0.951996,0.298856
0.004000,4.000000,0.098701,-0.017362,0.018628,-0.039580,0.952343,0.299087,0.098701,-0.017362,0.018628,-0.039580,0.952343,0.299087
0.005000,5.000000,0.097973,-0.038156,-0.023486,-0.039016,0.952514,0.298862,0.097973,-0.038156,-0.023486,-0.039016,0.952514,0.298862
0.006000,6.000000,0.004727,0.023534,-0.046306,-0.039067,0.952095,0.298994,0.004727,0.023534,-0.046306,-0.039067,0.952095,0.298994
0.007000,7.000000,-0.090666,-0.028791,-0.018451,-0.039631,0.952181,0.299218,-0.090666,-0.028791,-0.018451,-0.039631,0.952181,0.299218
0.008000,8.000000,-0.213812,-0.021730,-0.004632,-0.039485,0.952755,0.299082,-0.213812,-0.021730,-0.004632,-0.039485,0.952755,0.299082
0.009000,9.000000,-0.242563,-0.012840,-0.007573,-0.039078,0.953083,0.299416,-0.242563,-0.012840,-0.007573,-0.039078,0.953083,0.299416
0.010000,10.000000,-0.096847,0.036072,0.003762,-0.038891,0.953533,0.299215,-0.096847,0.036072,0.003762,-0.038891,0.953533,0.299215
0.011000,11.000000,0.150497,0.047826,0.031698,-0.039220,0.953459,0.299450,0.150497,0.047826,0.031698,-0.039220,0.953459,0.299450
0.012000,12.000000,0.103934,0.058093,0.046032,-0.039482,0.953354,0.300156,0.103934,0.058093,0.046032,-0.039482,0.953354,0.300156
0.013000,13.000000,-0.073328,0.000434,0.030669,-0.039540,0.953421,0.300420,-0.073328,0.000434,0.030669,-0.039540,0.953421,0.300420
0.014000,14.000000,-0.069291,-0.013572,0.039949,-0.039095,0.953065,0.300019,-0.069291,-0.013572,0.039949,-0.039095,0.953065,0.300019
0.015000,15.000000,-0.015192,-0.030536,0.015386,-0.039264,0.952978,0.299830,-0.015192,-0.030536,0.015386,-0.039264,0.952978,0.299830
0.016000,16.000000,-0.109479,-0.068351,0.003227,-0.039119,0.953140,0.299967,-0.109479,-0.068351,0.003227,-0.039119,0.953140,0.299967
0.017000,17.000000,-0.098851,-0.064241,-0.006801,-0.038803,0.953454,0.300183,-0.098851,-0.064241,-0.006801,-0.038803,0.953454,0.300183
0.018000,18.000000,-0.036562,-0.129481,-0.002856,-0.039100,0.953808,0.300515,-0.036562,-0.129481,-0.002856,-0.039100,0.953808,0.300515
0.019000,19.000000,-0.075053,-0.130757,0.078191,-0.039082,0.954264,0.299760,-0.075053,-0.130757,0.078191,-0.039082,0.954264,0.299760
0.020000,20.000000,-0.110430,-0.057813,0.091150,-0.039174,0.954186,0.299022,-0.110430,-0.057813,0.091150,-0.039174,0.954186,0.299022
0.021000,21.000000,-0.165117,0.005620,0.015039,-0.039286,0.953891,0.299585,-0.165117,0.005620,0.015039,-0.039286,0.953891,0.299585
0.022000,22.000000,-0.123299,-0.013092,-0.023269,-0.039029,0.953444,0.300092,-0.123299,-0.013092,-0.023269,-0.039029,0.953444,0.300092
0.023000,23.000000,-0.093165,0.027887,-0.012810,-0.038873,0.953429,0.299937,-0.093165,0.027887,-0.012810,-0.038873,0.953429,0.299937
0.024000,24.000000,-0.011945,0.031029,0.035485,-0.038931,0.953335,0.299993,-0.011945,0.031029,0.035485,-0.038931,0.953335,0.299993
0.025000,25.000000,0.081161,0.058203,0.059966,-0.039036,0.953500,0.300469,0.081161,0.058203,0.059966,-0.039036,0.953500,0.300469
0.026000,26.000000,0.029652,0.025104,0.052876,-0.039154,0.953543,0.300582,0.029652,0.025104,0.052876,-0.039154,0.953543,0.300582
0.027000,27.000000,0.035998,0.063636,0.024542,-0.039091,0.953738,0.300700,0.035998,0.063636,0.024542,-0.039091,0.953738,0.300700
0.028000,28.000000,-0.096381,0.040902,0.005241,-0.039169,0.953409,0.300919,-0.096381,0.040902,0.005241,-0.039169,0.953409,0.300919
0.029000,29.000000,-0.241948,-0.057619,-0.012217,-0.039467,0.952686,0.300699,-0.241948,-0.057619,-0.012217,-0.039467,0.952686,0.300699
0.030000,30.000000,-0.123893,-0.062439,-0.063922,-0.038982,0.952329,0.300457,-0.123893,-0.062439,-0.063922,-0.038982,0.952329,0.300457
0.031000,31.000000,-0.208153,-0.089051,-0.075434,-0.038686,0.952238,0.299749,-0.208153,-0.089051,-0.075434,-0.038686,0.952238,0.299749
0.032000,32.000000,-0.241938,-0.115774,-0.012012,-0.038152,0.952216,0.299109,-0.241938,-0.115774,-0.012012,-0.038152,0.952216,0.299109
0.033000,33.000000,-0.183811,-0.121676,0.022908,-0.038113,0.951746,0.298956,-0.183811,-0.121676,0.022908,-0.038113,0.951746,0.298956
0.034000,34.000000,-0.049794,-0.089802,0.057301,-0.038383,0.951080,0.299107,-0.049794,-0.089802,0.057301,-0.038383,0.951080,0.299107
0.035000,35.000000,-0.002636,-0.029067,0.052335,-0.038823,0.950457,0.299427,-0.002636,-0.029067,0.052335,-0.038823,0.950457,0.299427
0.036000,36.000000,0.022424,-0.048346,0.044439,-0.038554,0.950119,0.299412,0.022424,-0.048346,0.044439,-0.038554,0.950119,0.299412
0.037000,37.000000,0.062294,-0.053778,0.029288,-0.038304,0.950405,0.298943,0.062294,-0.053778,0.029288,-0.038304,0.950405,0.298943
0.038000,38.000000,0.078493,0.017810,-0.001018,-0.037964,0.951400,0.298823,0.078493,0.017810,-0.001018,-0.037964,0.951400,0.298823
0.039000,39.000000,0.081829,0.001828,0.044221,-0.037877,0.952014,0.299627,0.081829,0.001828,0.044221,-0.037877,0.952014,0.299627
0.040000,40.000000,0.008861,-0.021785,0.035770,-0.038137,0.951884,0.299824,0.008861,-0.021785,0.035770,-0.038137,0.951884,0.299824
0.041000,41.000000,0.010709,0.019380,0.020377,-0.038294,0.951756,0.299595,0.010709,0.019380,0.020377,-0.038294,0.951756,0.299595
0.042000,42.000000,0.057158,-0.010138,-0.003618,-0.038424,0.952189,0.299818,0.057158,-0.010138,-0.003618,-0.038424,0.952189,0.299818
0.043000,43.000000,0.122082,-0.031566,-0.029616,-0.038177,0.952663,0.299867,0.122082,-0.031566,-0.029616,-0.038177,0.952663,0.299867
0.044000,44.000000,-0.014384,-0.069147,0.011857,-0.037747,0.953241,0.299875,-0.014384,-0.069147,0.011857,-0.037747,0.953241,0.299875
0.045000,45.000000,0.019065,-0.091803,0.034641,-0.037269,0.953561,0.300243,0.019065,-0.091803,0.034641,-0.037269,0.953561,0.300243
0.046000,46.000000,-0.066721,-0.156835,-0.005426,-0.037614,0.953916,0.300336,-0.066721,-0.156835,-0.005426,-0.037614,0.953916,0.300336
0.047000,47.000000,0.012685,-0.119622,-0.015998,-0.038158,0.954009,0.300638,0.012685,-0.119622,-0.015998,-0.038158,0.954009,0.300638
0.048000,48.000000,0.070587,-0.076535,-0.019019,-0.038014,0.954032,0.300616,0.070587,-0.076535,-0.019019,-0.038014,0.954032,0.300616
0.049000,49.000000,0.051015,-0.079075,-0.019586,-0.037797,0.953855,0.300238,0.051015,-0.079075,-0.019586,-0.037797,0.953855,0.300238
0.050000,50.000000,-0.007758,-0.026545,-0.072349,-0.037834,0.953532,0.299965,-0.007758,-0.026545,-0.072349,-0.037834,0.953532,0.299965
0.051000,51.000000,-0.147954,-0.040081,-0.037807,-0.038121,0.952992,0.300183,-0.147954,-0.040081,-0.037807,-0.038121,0.952992,0.300183
0.052000,52.000000,-0.155056,-0.057652,-0.036412,-0.038378,0.952678,0.300606,-0.155056,-0.057652,-0.036412,-0.038378,0.952678,0.300606
0.053000,53.000000,-0.242986,-0.047985,-0.022183,-0.038540,0.951956,0.300246,-0.242986,-0.047985,-0.022183,-0.038540,0.951956,0.300246
0.054000,54.000000,-0.290281,-0.038926,-0.005223,-0.038670,0.951964,0.299698,-0.290281,-0.038926,-0.005223,-0.038670,0.951964,0.299698
0.055000,55.000000,-0.015474,0.049435,-0.003166,-0.038510,0.952893,0.300210,-0.015474,0.049435,-0.003166,-0.038510,0.952893,0.300210
0.056000,56.000000,0.103814,0.050794,-0.022716,-0.037917,0.953670,0.299769,0.103814,0.050794,-0.022716,-0.037917,0.953670,0.299769
0.057000,57.000000,0.068214,0.064736,-0.033177,-0.037681,0.954221,0.299660,0.068214,0.064736,-0.033177,-0.037681,0.954221,0.299660
0.058000,58.000000,-0.040936,0.074497,-0.015278,-0.037714,0.954264,0.300098,-0.040936,0.074497,-0.015278,-0.037714,0.954264,0.300098
0.059000,59.000000,-0.067698,0.136054,0.015093,-0.038186,0.954000,0.300486,-0.067698,0.136054,0.015093,-0.038186,0.954000,0.300486
0.060000,60.000000,-0.035168,0.058072,0.022072,-0.038578,0.953753,0.300585,-0.035168,0.058072,0.022072,-0.038578,0.953753,0.300585
0.061000,61.000000,0.031542,0.020242,0.003629,-0.038851,0.953971,0.301260,0.031542,0.020242,0.003629,-0.038851,0.953971,0.301260
0.062000,62.000000,0.000633,-0.008985,-0.007288,-0.039204,0.953841,0.300498,0.000633,-0.008985,-0.007288,-0.039204,0.953841,0.300498
0.063000,63.000000,-0.033137,-0.069470,-0.022727,-0.039476,0.953437,0.300316,-0.033137,-0.069470,-0.022727,-0.039476,0.953437,0.300316
0.064000,64.000000,-0.106797,-0.043882,-0.018931,-0.039167,0.952508,0.300736,-0.106797,-0.043882,-0.018931,-0.039167,0.952508,0.300736
0.065000,65.000000,-0.071113,-0.124741,0.001352,-0.038534,0.952553,0.300277,-0.071113,-0.124741,0.001352,-0.038534,0.952553,0.300277
0.066000,66.000000,0.017860,-0.117240,0.018768,-0.038473,0.952843,0.299980,0.017860,-0.117240,0.018768,-0.038473,0.952843,0.299980
0.067000,67.000000,-0.059231,-0.035802,0.003716,-0.038649,0.952828,0.299815,-0.059231,-0.035802,0.003716,-0.038649,0.952828,0.299815
0.068000,68.000000,-0.032318,0.030232,-0.020209,-0.038325,0.952179,0.300051,-0.032318,0.030232,-0.020209,-0.038325,0.952179,0.300051
0.069000,69.000000,0.026410,0.039093,-0.033048,-0.038427,0.952020,0.300112,0.026410,0.039093,-0.033048,-0.038427,0.952020,0.300112
0.070000,70.000000,-0.019526,0.028007,-0.062088,-0.038355,0.951518,0.300407,-0.019526,0.028007,-0.062088,-0.038355,0.951518,0.300407
0.071000,71.000000,-0.110514,0.025741,-0.041984,-0.038527,0.952039,0.299829,-0.110514,0.025741,-0.041984,-0.038527,0.952039,0.299829
0.072000,72.000000,-0.071502,0.024712,-0.030939,-0.038483,0.951702,0.299317,-0.071502,0.024712,-0.030939,-0.038483,0.951702,0.299317
0.073000,73.000000,-0.108409,-0.009063,-0.021489,-0.038845,0.951441,0.299661,-0.108409,-0.009063,-0.021489,-0.038845,0.951441,0.299661
0.074000,74.000000,-0.003829,-0.030227,0.026683,-0.038932,0.951191,0.299469,-0.003829,-0.030227,0.026683,-0.038932,0.951191,0.299469
0.075000,75.000000,0.101145,-0.055781,-0.001789,-0.038767,0.951129,0.299051,0.101145,-0.055781,-0.001789,-0.038767,0.951129,0.299051
0.076000,76.000000,0.012936,-0.054839,-0.028115,-0.039192,0.951018,0.298765,0.012936,-0.054839,-0.028115,-0.039192,0.951018,0.298765
0.077000,77.000000,0.011712,0.011636,-0.047943,-0.038924,0.951086,0.298786,0.011712,0.011636,-0.047943,-0.038924,0.951086,0.298786
0.078000,78.000000,-0.002542,0.034042,-0.072546,-0.038399,0.951200,0.298882,-0.002542,0.034042,-0.072546,-0.038399,0.951200,0.298882
0.079000,79.000000,0.001215,0.066479,-0.012213,-0.039017,0.951504,0.298818,0.001215,0.066479,-0.012213,-0.039017,0.951504,0.298818
0.080000,80.000000,-0.144162,0.028015,-0.016745,-0.040183,0.951672,0.299183,-0.144162,0.028015,-0.016745,-0.040183,0.951672,0.299183
0.081000,81.000000,-0.233425,-0.067361,-0.043980,-0.040277,0.951711,0.299731,-0.233425,-0.067361,-0.043980,-0.040277,0.951711,0.299731
0.082000,82.000000,-0.268463,-0.083928,-0.037392,-0.039840,0.951534,0.299489,-0.268463,-0.083928,-0.037392,-0.039840,0.951534,0.299489
0.083000,83.000000,-0.270283,-0.100045,-0.022524,-0.039547,0.951773,0.299147,-0.270283,-0.100045,-0.022524,-0.039547,0.951773,0.299147
0.084000,84.000000,-0.190779,-0.150855,-0.019339,-0.038910,0.952566,0.299613,-0.190779,-0.150855,-0.019339,-0.038910,0.952566,0.299613
0.085000,85.000000,-0.091842,-0.162674,0.007511,-0.038382,0.952662,0.300188,-0.091842,-0.162674,0.007511,-0.038382,0.952662,0.300188
0.086000,86.000000,0.046542,-0.046570,0.033187,-0.038442,0.952505,0.300699,0.046542,-0.046570,0.033187,-0.038442,0.952505,0.300699
0.087000,87.000000,-0.025624,-0.058516,0.073333,-0.038549,0.952192,0.300825,-0.025624,-0.058516,0.073333,-0.038549,0.952192,0.300825
0.088000,88.000000,-0.002180,-0.016217,0.036464,-0.038482,0.952671,0.300853,-0.002180,-0.016217,0.036464,-0.038482,0.952671,0.300853
0.089000,89.000000,0.030279,-0.019345,-0.012207,-0.038188,0.953704,0.300020,0.030279,-0.019345,-0.012207,-0.038188,0.953704,0.300020
0.090000,90.000000,0.064251,-0.053609,-0.017622,-0.038208,0.953490,0.300008,0.064251,-0.053609,-0.017622,-0.038208,0.953490,0.300008
0.091000,91.000000,-0.014652,0.025036,0.054256,-0.038766,0.953719,0.300381,-0.014652,0.025036,0.054256,-0.038766,0.953719,0.300381
0.092000,92.000000,-0.008381,0.050873,0.071234,-0.038806,0.954425,0.300837,-0.008381,0.050873,0.071234,-0.038806,0.954425,0.300837
0.093000,93.000000,0.032558,-0.002568,0.035434,-0.038541,0.954227,0.300760,0.032558,-0.002568,0.035434,-0.038541,0.954227,0.300760
0.094000,94.000000,-0.083018,0.010720,0.027279,-0.038576,0.953803,0.300468,-0.083018,0.010720,0.027279,-0.038576,0.953803,0.300468
0.095000,95.000000,-0.084176,-0.006047,0.004975,-0.038769,0.953333,0.299752,-0.084176,-0.006047,0.004975,-0.038769,0.953333,0.299752
0.096000,96.000000,-0.224247,-0.009359,0.007472,-0.039095,0.953311,0.299582,-0.224247,-0.009359,0.007472,-0.039095,0.953311,0.299582
0.097000,97.000000,-0.098941,-0.011037,-0.026149,-0.039265,0.954047,0.299628,-0.098941,-0.011037,-0.026149,-0.039265,0.954047,0.299628
0.098000,98.000000,-0.062421,-0.077426,-0.067068,-0.039122,0.954223,0.299543,-0.062421,-0.077426,-0.067068,-0.039122,0.954223,0.299543
0.099000,99.000000,0.038882,-0.119815,-0.050884,-0.038807,0.953891,0.299616,0.038882,-0.119815,-0.050884,-0.038807,0.953891,0.299616
0.100000,100.000000,0.137272,-0.070541,0.005351,-0.039195,0.953446,0.299547,0.137272,-0.070541,0.005351,-0.039195,0.953446,0.299547
0.101000,101.000000,0.061324,-0.032142,0.026065,-0.039662,0.953251,0.299904,0.061324,-0.032142,0.026065,-0.039662,0.953251,0.299904
0.102000,102.000000,0.036652,-0.049329,0.004879,-0.039869,0.953297,0.299899,0.036652,-0.049329,0.004879,-0.039869,0.953297,0.299899
0.103000,103.000000,-0.082807,-0.053438,-0.012599,-0.039826,0.953396,0.299897,-0.082807,-0.053438,-0.012599,-0.039826,0.953396,0.299897
0.104000,104.000000,-0.185495,-0.060932,-0.016585,-0.039347,0.953421,0.299614,-0.185495,-0.060932,-0.016585,-0.039347,0.953421,0.299614
0.105000,105.000000,-0.123931,-0.082229,-0.024939,-0.039139,0.952316,0.299271,-0.123931,-0.082229,-0.024939,-0.039139,0.952316,0.299271
0.106000,106.000000,-0.055591,-0.059964,-0.000738,-0.039093,0.952142,0.299279,-0.055591,-0.059964,-0.000738,-0.039093,0.952142,0.299279
0.107000,107.000000,0.074527,0.004861,0.030917,-0.039359,0.952467,0.299562,0.074527,0.004861,0.030917,-0.039359,0.952467,0.299562
0.108000,108.000000,0.165854,-0.006244,-0.014285,-0.039887,0.952548,0.299540,0.165854,-0.006244,-0.014285,-0.039887,0.952548,0.299540
0.109000,109.000000,0.082480,0.003964,0.015472,-0.040103,0.953406,0.300271,0.082480,0.003964,0.015472,-0.040103,0.953406,0.300271
0.110000,110.000000,0.082023,-0.019923,0.055596,-0.040153,0.953521,0.300725,0.082023,-0.019923,0.055596,-0.040153,0.953521,0.300725
0.111000,111.000000,-0.005447,-0.025264,0.025727,-0.040351,0.953085,0.300931,-0.005447,-0.025264,0.025727,-0.040351,0.953085,0.300931
0.112000,112.000000,-0.047039,-0.059821,0.005227,-0.040302,0.953067,0.300702,-0.047039,-0.059821,0.005227,-0.040302,0.953067,0.300702
0.113000,113.000000,0.029322,-0.048034,-0.046905,-0.040288,0.952968,0.300741,0.029322,-0.048034,-0.046905,-0.040288,0.952968,0.300741
0.114000,114.000000,0.047247,-0.104435,-0.006325,-0.039732,0.953591,0.300373,0.047247,-0.104435,-0.006325,-0.039732,0.953591,0.300373
0.115000,115.000000,-0.009366,-0.184500,0.017073,-0.039421,0.953464,0.299728,-0.009366,-0.184500,0.017073,-0.039421,0.953464,0.299728
0.116000,116.000000,-0.121837,-0.177680,0.023518,-0.039901,0.953528,0.299947,-0.121837,-0.177680,0.023518,-0.039901,0.953528,0.299947
0.117000,117.000000,-0.121170,-0.030299,0.044765,-0.040384,0.953273,0.300374,-0.121170,-0.030299,0.044765,-0.040384,0.953273,0.300374
0.118000,118.000000,-0.154266,-0.001329,0.017038,-0.040599,0.952660,0.300388,-0.154266,-0.001329,0.017038,-0.040599,0.952660,0.300388
0.119000,119.000000,-0.001626,0.038127,0.009220,-0.040835,0.952787,0.300023,-0.001626,0.038127,0.009220,-0.040835,0.952787,0.300023
0.120000,120.000000,0.167966,0.013695,-0.006551,-0.040801,0.953092,0.299563,0.167966,0.013695,-0.006551,-0.040801,0.953092,0.299563
0.121000,121.000000,0.162009,0.015090,-0.023385,-0.040710,0.952052,0.298345,0.162009,0.015090,-0.023385,-0.040710,0.952052,0.298345
0.122000,122.000000,0.120928,0.035074,-0.007203,-0.040878,0.951708,0.298329,0.120928,0.035074,-0.007203,-0.040878,0.951708,0.298329
0.123000,123.000000,0.084185,0.086415,-0.003132,-0.040632,0.951898,0.298042,0.084185,0.086415,-0.003132,-0.040632,0.951898,0.298042
0.124000,124.000000,-0.050661,0.158871,0.018494,-0.040193,0.952041,0.298248,-0.050661,0.158871,0.018494,-0.040193,0.952041,0.298248
0.125000,125.000000,-0.176925,0.103723,0.010772,-0.040555,0.952732,0.298486,-0.176925,0.103723,0.010772,-0.040555,0.952732,0.298486
0.126000,126.000000,-0.108633,-0.008730,0.001802,-0.040460,0.953078,0.298355,-0.108633,-0.008730,0.001802,-0.040460,0.953078,0.298355
0.127000,127.000000,-0.072527,0.017555,0.019266,-0.039601,0.952599,0.298596,-0.072527,0.017555,0.019266,-0.039601,0.952599,0.298596
0.128000,128.000000,-0.084275,-0.049179,0.003959,-0.039760,0.952576,0.299212,-0.084275,-0.049179,0.003959,-0.039760,0.952576,0.299212
0.129000,129.000000,0.052870,-0.111872,-0.000503,-0.039986,0.953313,0.299452,0.052870,-0.111872,-0.000503,-0.039986,0.953313,0.299452
0.130000,130.000000,0.039834,-0.073037,-0.007849,-0.039760,0.953863,0.299693,0.039834,-0.073037,-0.007849,-0.039760,0.953863,0.299693
0.131000,131.000000,-0.002218,-0.057213,0.023817,-0.039615,0.953900,0.299565,-0.002218,-0.057213,0.023817,-0.039615,0.953900,0.299565
0.132000,132.000000,-0.098100,-0.061568,-0.001408,-0.039397,0.953353,0.299165,-0.098100,-0.061568,-0.001408,-0.039397,0.953353,0.299165
0.133000,133.000000,-0.081114,-0.043854,0.012092,-0.039995,0.953042,0.299071,-0.081114,-0.043854,0.012092,-0.039995,0.953042,0.299071
0.134000,134.000000,-0.096651,-0.071554,0.061976,-0.040046,0.952784,0.299232,-0.096651,-0.071554,0.061976,-0.040046,0.952784,0.299232
0.135000,135.000000,-0.053763,-0.112091,0.034067,-0.039504,0.952526,0.298438,-0.053763,-0.112091,0.034067,-0.039504,0.952526,0.298438
0.136000,136.000000,-0.096611,-0.094874,0.060673,-0.038712,0.952920,0.299537,-0.096611,-0.094874,0.060673,-0.038712,0.952920,0.299537
0.137000,137.000000,-0.067321,-0.063932,0.099789,-0.038615,0.953391,0.300080,-0.067321,-0.063932,0.099789,-0.038615,0.953391,0.300080
0.138000,138.000000,-0.046687,0.009899,0.115707,-0.039059,0.953784,0.299657,-0.046687,0.009899,0.115707,-0.039059,0.953784,0.299657
0.139000,139.000000,0.018176,-0.006944,0.065953,-0.039448,0.953789,0.299370,0.018176,-0.006944,0.065953,-0.039448,0.953789,0.299370
0.140000,140.000000,0.007214,-0.010383,0.060678,-0.039265,0.954069,0.298743,0.007214,-0.010383,0.060678,-0.039265,0.954069,0.298743
0.141000,141.000000,-0.028466,-0.050416,0.013452,-0.039216,0.954044,0.298871,-0.028466,-0.050416,0.013452,-0.039216,0.954044,0.298871
0.142000,142.000000,0.027994,-0.107286,-0.064764,-0.038923,0.953765,0.299639,0.027994,-0.107286,-0.064764,-0.038923,0.953765,0.299639
0.143000,143.000000,-0.084837,-0.180293,-0.042860,-0.039230,0.952869,0.299367,-0.084837,-0.180293,-0.042860,-0.039230,0.952869,0.299367
0.144000,144.000000,-0.119053,-0.210882,-0.011185,-0.039583,0.951724,0.299028,-0.119053,-0.210882,-0.011185,-0.039583,0.951724,0.299028
0.145000,145.000000,-0.073483,-0.145049,0.048815,-0.039297,0.951536,0.298850,-0.073483,-0.145049,0.048815,-0.039297,0.951536,0.298850
0.146000,146.000000,-0.109994,-0.122454,0.023775,-0.038852,0.952046,0.299080,-0.109994,-0.122454,0.023775,-0.038852,0.952046,0.299080
0.147000,147.000000,-0.277807,-0.129605,0.045512,-0.038649,0.953002,0.299691,-0.277807,-0.129605,0.045512,-0.038649,0.953002,0.299691
0.148000,148.000000,-0.351701,-0.125337,0.051072,-0.038602,0.953695,0.300115,-0.351701,-0.125337,0.051072,-0.038602,0.953695,0.300115
0.149000,149.000000,-0.349200,-0.130732,0.065540,-0.038959,0.953678,0.300312,-0.349200,-0.130732,0.065540,-0.038959,0.953678,0.300312
0.150000,150.000000,-0.248623,-0.084553,0.068499,-0.039135,0.953210,0.300361,-0.248623,-0.084553,0.068499,-0.039135,0.953210,0.300361
0.151000,151.000000,-0.098024,-0.127362,0.055629,-0.038806,0.954017,0.299998,-0.098024,-0.127362,0.055629,-0.038806,0.954017,0.299998
0.152000,152.000000,0.051104,-0.078418,-0.008184,-0.038918,0.954862,0.299815,0.051104,-0.078418,-0.008184,-0.038918,0.954862,0.299815
0.153000,153.000000,0.014602,-0.001108,-0.056175,-0.039317,0.954136,0.299871,0.014602,-0.001108,-0.056175,-0.039317,0.954136,0.299871
0.154000,154.000000,-0.020825,-0.029208,-0.067349,-0.039321,0.953225,0.299884,-0.020825,-0.029208,-0.067349,-0.039321,0.953225,0.299884
0.155000,155.000000,-0.061792,0.049940,-0.056737,-0.039224,0.952726,0.299889,-0.061792,0.049940,-0.056737,-0.039224,0.952726,0.299889
0.156000,156.000000,-0.064878,0.063423,-0.027645,-0.039017,0.952794,0.299611,-0.064878,0.063423,-0.027645,-0.039017,0.952794,0.299611
0.157000,157.000000,-0.059950,-0.005953,-0.014230,-0.039148,0.954293,0.300186,-0.059950,-0.005953,-0.014230,-0.039148,0.954293,0.300186
0.158000,158.000000,0.007144,0.024126,-0.004766,-0.039084,0.955022,0.300509,0.007144,0.024126,-0.004766,-0.039084,0.955022,0.300509
0.159000,159.000000,0.062782,0.037643,-0.003039,-0.038979,0.954920,0.300405,0.062782,0.037643,-0.003039,-0.038979,0.954920,0.300405
0.160000,160.000000,-0.083133,-0.038786,0.005408,-0.039057,0.953231,0.299736,-0.083133,-0.038786,0.005408,-0.039057,0.953231,0.299736
0.161000,161.000000,-0.078421,-0.063368,0.020563,-0.038794,0.951894,0.299576,-0.078421,-0.063368,0.020563,-0.038794,0.951894,0.299576
0.162000,162.000000,-0.030873,-0.202517,0.017296,-0.038358,0.951480,0.299257,-0.030873,-0.202517,0.017296,-0.038358,0.951480,0.299257
0.163000,163.000000,0.021233,-0.149637,0.029124,-0.038345,0.951563,0.299458,0.021233,-0.149637,0.029124,-0.038345,0.951563,0.299458
0.164000,164.000000,-0.100287,-0.116361,0.019482,-0.037692,0.951680,0.299412,-0.100287,-0.116361,0.019482,-0.037692,0.951680,0.299412
0.165000,165.000000,-0.016968,-0.094966,-0.003445,-0.038282,0.951060,0.298572,-0.016968,-0.094966,-0.003445,-0.038282,0.951060,0.298572
0.166000,166.000000,-0.022838,-0.150133,-0.028669,-0.038616,0.950635,0.298461,-0.022838,-0.150133,-0.028669,-0.038616,0.950635,0.298461
0.167000,167.000000,-0.030455,-0.064180,-0.047953,-0.039068,0.950716,0.298160,-0.030455,-0.064180,-0.047953,-0.039068,0.950716,0.298160
0.168000,168.000000,-0.112250,0.029579,0.014155,-0.039635,0.951936,0.298182,-0.112250,0.029579,0.014155,-0.039635,0.951936,0.298182
0.169000,169.000000,-0.091440,0.012368,0.048962,-0.039764,0.953251,0.298924,-0.091440,0.012368,0.048962,-0.039764,0.953251,0.298924
0.170000,170.000000,0.033036,-0.077933,0.056740,-0.039603,0.954680,0.299931,0.033036,-0.077933,0.056740,-0.039603,0.954680,0.299931
0.171000,171.000000,0.215457,-0.073266,0.017880,-0.039851,0.954842,0.299715,0.215457,-0.073266,0.017880,-0.039851,0.954842,0.299715
0.172000,172.000000,0.266518,-0.032887,0.021872,-0.039358,0.954970,0.299752,0.266518,-0.032887,0.021872,-0.039358,0.954970,0.299752
0.173000,173.000000,0.144599,0.057799,0.016989,-0.038860,0.954903,0.299666,0.144599,0.057799,0.016989,-0.038860,0.954903,0.299666
0.174000,174.000000,0.076199,0.113289,-0.010552,-0.038460,0.954706,0.300106,0.076199,0.113289,-0.010552,-0.038460,0.954706,0.300106
0.175000,175.000000,0.013859,0.107024,0.023018,-0.039016,0.954848,0.300215,0.013859,0.107024,0.023018,-0.039016,0.954848,0.300215
0.176000,176.000000,-0.034121,0.051841,0.011356,-0.039243,0.954419,0.300430,-0.034121,0.051841,0.011356,-0.039243,0.954419,0.300430
0.177000,177.000000,-0.113242,-0.027941,0.035288,-0.039490,0.953204,0.299562,-0.113242,-0.027941,0.035288,-0.039490,0.953204,0.299562
0.178000,178.000000,-0.073561,-0.040471,0.027321,-0.039277,0.952815,0.298608,-0.073561,-0.040471,0.027321,-0.039277,0.952815,0.298608
0.179000,179.000000,-0.018271,-0.030134,-0.027913,-0.038486,0.953462,0.297815,-0.018271,-0.030134,-0.027913,-0.038486,0.953462,0.297815
0.180000,180.000000,-0.018069,-0.034348,-0.034396,-0.038289,0.953711,0.297995,-0.018069,-0.034348,-0.034396,-0.038289,0.953711,0.297995
0.181000,181.000000,0.095798,-0.008249,0.009943,-0.038240,0.953308,0.298224,0.095798,-0.008249,0.009943,-0.038240,0.953308,0.298224
0.182000,182.000000,0.044357,0.011384,0.014577,-0.038138,0.952655,0.298001,0.044357,0.011384,0.014577,-0.038138,0.952655,0.298001
0.183000,183.000000,0.039755,0.001756,0.042201,-0.037835,0.952124,0.297946,0.039755,0.001756,0.042201,-0.037835,0.952124,0.297946
0.184000,184.000000,0.112560,0.051479,0.001844,-0.037851,0.951813,0.298303,0.112560,0.051479,0.001844,-0.037851,0.951813,0.298303
0.185000,185.000000,0.129943,0.049881,-0.014548,-0.037952,0.951831,0.298576,0.129943,0.049881,-0.014548,-0.037952,0.951831,0.298576
0.186000,186.000000,0.027854,0.103412,0.008811,-0.038627,0.952114,0.298185,0.027854,0.103412,0.008811,-0.038627,0.952114,0.298185
0.187000,187.000000,-0.043357,0.090208,0.094051,-0.039537,0.951626,0.297544,-0.043357,0.090208,0.094051,-0.039537,0.951626,0.297544
0.188000,188.000000,-0.107184,0.054176,0.101605,-0.039843,0.950859,0.297949,-0.107184,0.054176,0.101605,-0.039843,0.950859,0.297949
0.189000,189.000000,-0.149730,0.045298,0.037096,-0.039451,0.950487,0.298228,-0.149730,0.045298,0.037096,-0.039451,0.950487,0.298228
0.190000,190.000000,-0.207801,0.048710,-0.044716,-0.039174,0.950585,0.297922,-0.207801,0.048710,-0.044716,-0.039174,0.950585,0.297922
0.191000,191.000000,-0.241397,0.016122,-0.057684,-0.039111,0.950979,0.297754,-0.241397,0.016122,-0.057684,-0.039111,0.950979,0.297754
0.192000,192.000000,-0.309311,-0.077295,-0.046857,-0.039187,0.951080,0.297897,-0.309311,-0.077295,-0.046857,-0.039187,0.951080,0.297897
0.193000,193.000000,-0.246130,-0.125674,-0.031289,-0.038744,0.950456,0.297837,-0.246130,-0.125674,-0.031289,-0.038744,0.950456,0.297837
0.194000,194.000000,-0.124160,-0.143969,0.084407,-0.038635,0.950119,0.297916,-0.124160,-0.143969,0.084407,-0.038635,0.950119,0.297916
0.195000,195.000000,-0.114441,-0.108924,0.079171,-0.038513,0.949945,0.297843,-0.114441,-0.108924,0.079171,-0.038513,0.949945,0.297843
0.196000,196.000000,-0.112031,-0.133644,0.031495,-0.038296,0.950089,0.298380,-0.112031,-0.133644,0.031495,-0.038296,0.950089,0.298380
0.197000,197.000000,-0.211056,-0.079712,0.073659,-0.038614,0.950676,0.299159,-0.211056,-0.079712,0.073659,-0.038614,0.950676,0.299159
0.198000,198.000000,-0.227854,-0.047175,0.050784,-0.038599,0.951001,0.299531,-0.227854,-0.047175,0.050784,-0.038599,0.951001,0.299531
0.199000,199.000000,-0.251518,-0.059100,0.065586,-0.038779,0.951635,0.299990,-0.251518,-0.059100,0.065586,-0.038779,0.951635,0.299990
0.200000,200.000000,-0.218046,-0.062276,0.035585,-0.038542,0.952346,0.299820,-0.218046,-0.062276,0.035585,-0.038542,0.952346,0.299820
0.201000,201.000000,-0.097759,-0.009920,0.014029,-0.038203,0.953631,0.300233,-0.097759,-0.009920,0.014029,-0.038203,0.953631,0.300233
0.202000,202.000000,-0.041288,-0.036971,0.035274,-0.038485,0.954778,0.300978,-0.041288,-0.036971,0.035274,-0.038485,0.954778,0.300978
0.203000,203.000000,-0.020900,-0.063987,0.013746,-0.038734,0.955512,0.300791,-0.020900,-0.063987,0.013746,-0.038734,0.955512,0.300791
0.204000,204.000000,0.065035,-0.057531,-0.004981,-0.038704,0.955416,0.301116,0.065035,-0.057531,-0.004981,-0.038704,0.955416,0.301116
0.205000,205.000000,-0.014097,-0.055688,0.031165,-0.038604,0.955303,0.301381,-0.014097,-0.055688,0.031165,-0.038604,0.955303,0.301381
0.206000,206.000000,-0.066527,-0.108281,0.059884,-0.038490,0.954342,0.301171,-0.066527,-0.108281,0.059884,-0.038490,0.954342,0.301171
0.207000,207.000000,-0.106346,-0.107998,0.046964,-0.038463,0.954108,0.300843,-0.106346,-0.107998,0.046964,-0.038463,0.954108,0.300843
0.208000,208.000000,-0.062849,-0.081262,-0.029697,-0.038924,0.953401,0.300859,-0.062849,-0.081262,-0.029697,-0.038924,0.953401,0.300859
0.209000,209.000000,0.006456,0.005640,-0.028910,-0.039129,0.953140,0.300493,0.006456,0.005640,-0.028910,-0.039129,0.953140,0.300493
0.210000,210.000000,0.029237,0.046939,0.030733,-0.038996,0.953264,0.299569,0.029237,0.046939,0.030733,-0.038996,0.953264,0.299569
0.211000,211.000000,-0.138493,-0.002278,0.013120,-0.038783,0.952832,0.299439,-0.138493,-0.002278,0.013120,-0.038783,0.952832,0.299439
0.212000,212.000000,-0.198796,-0.133680,0.002626,-0.038360,0.952544,0.300239,-0.198796,-0.133680,0.002626,-0.038360,0.952544,0.300239
0.213000,213.000000,-0.185960,-0.158717,0.073239,-0.038988,0.953122,0.300900,-0.185960,-0.158717,0.073239,-0.038988,0.953122,0.300900
0.214000,214.000000,-0.142464,-0.177865,0.123210,-0.039135,0.953542,0.301336,-0.142464,-0.177865,0.123210,-0.039135,0.953542,0.301336
0.215000,215.000000,-0.013052,-0.110299,0.061618,-0.038890,0.954199,0.301529,-0.013052,-0.110299,0.061618,-0.038890,0.954199,0.301529
0.216000,216.000000,0.171580,-0.087968,0.019130,-0.038646,0.954543,0.301759,0.171580,-0.087968,0.019130,-0.038646,0.954543,0.301759
0.217000,217.000000,0.222149,-0.101995,0.002482,-0.038589,0.954718,0.301721,0.222149,-0.101995,0.002482,-0.038589,0.954718,0.301721
0.218000,218.000000,0.208304,-0.091886,0.031897,-0.038017,0.954665,0.302083,0.208304,-0.091886,0.031897,-0.038017,0.954665,0.302083
0.219000,219.000000,0.205665,0.049574,0.058873,-0.038713,0.954936,0.301988,0.205665,0.049574,0.058873,-0.038713,0.954936,0.301988
0.220000,220.000000,0.145608,-0.022483,0.039246,-0.039443,0.954348,0.301230,0.145608,-0.022483,0.039246,-0.039443,0.954348,0.301230
0.221000,221.000000,0.036981,-0.033755,-0.025022,-0.038969,0.953738,0.300858,0.036981,-0.033755,-0.025022,-0.038969,0.953738,0.300858
0.222000,222.000000,0.016796,0.069323,-0.054210,-0.038672,0.953133,0.300860,0.016796,0.069323,-0.054210,-0.038672,0.953133,0.300860
0.223000,223.000000,0.077727,0.102294,-0.048295,-0.039068,0.952990,0.300865,0.077727,0.102294,-0.048295,-0.039068,0.952990,0.300865
0.224000,224.000000,0.092956,0.044597,-0.039958,-0.038980,0.952677,0.300404,0.092956,0.044597,-0.039958,-0.038980,0.952677,0.300404
0.225000,225.000000,0.082121,-0.049154,-0.017718,-0.038869,0.952324,0.299739,0.082121,-0.049154,-0.017718,-0.038869,0.952324,0.299739
0.226000,226.000000,0.046520,0.001815,-0.012291,-0.038473,0.952230,0.298557,0.046520,0.001815,-0.012291,-0.038473,0.952230,0.298557
0.227000,227.000000,-0.007806,0.013647,0.016240,-0.037916,0.951934,0.298636,-0.007806,0.013647,0.016240,-0.037916,0.951934,0.298636
0.228000,228.000000,-0.007410,0.056322,0.016353,-0.037691,0.951310,0.298843,-0.007410,0.056322,0.016353,-0.037691,0.951310,0.298843
0.229000,229.000000,0.033684,-0.033916,0.009590,-0.038383,0.951158,0.298899,0.033684,-0.033916,0.009590,-0.038383,0.951158,0.298899
0.230000,230.000000,0.109863,-0.108860,-0.019249,-0.039017,0.951028,0.298733,0.109863,-0.108860,-0.019249,-0.039017,0.951028,0.298733
0.231000,231.000000,0.120655,-0.026569,0.019857,-0.039166,0.950715,0.298600,0.120655,-0.026569,0.019857,-0.039166,0.950715,0.298600
0.232000,232.000000,0.129344,0.005730,-0.023722,-0.039012,0.950823,0.298287,0.129344,0.005730,-0.023722,-0.039012,0.950823,0.298287
0.233000,233.000000,0.038748,0.027287,0.045970,-0.039621,0.951595,0.298490,0.038748,0.027287,0.045970,-0.039621,0.951595,0.298490
0.234000,234.000000,-0.055463,0.025691,0.043348,-0.039487,0.952156,0.299090,-0.055463,0.025691,0.043348,-0.039487,0.952156,0.299090
0.235000,235.000000,-0.037466,0.031481,0.035825,-0.039083,0.952014,0.299510,-0.037466,0.031481,0.035825,-0.039083,0.952014,0.299510
0.236000,236.000000,-0.013076,0.012297,0.013899,-0.039077,0.951885,0.299523,-0.013076,0.012297,0.013899,-0.039077,0.951885,0.299523
0.237000,237.000000,-0.020455,-0.018667,-0.024392,-0.039074,0.952224,0.299894,-0.020455,-0.018667,-0.024392,-0.039074,0.952224,0.299894
0.238000,238.000000,0.142738,-0.112425,-0.034335,-0.038613,0.952674,0.299610,0.142738,-0.112425,-0.034335,-0.038613,0.952674,0.299610
0.239000,239.000000,0.101701,-0.047676,-0.003201,-0.038498,0.953429,0.299447,0.101701,-0.047676,-0.003201,-0.038498,0.953429,0.299447
0.240000,240.000000,-0.126561,0.001489,0.058637,-0.038472,0.953977,0.299683,-0.126561,0.001489,0.058637,-0.038472,0.953977,0.299683
0.241000,241.000000,-0.201928,-0.013977,0.046866,-0.038559,0.954112,0.299833,-0.201928,-0.013977,0.046866,-0.038559,0.954112,0.299833
0.242000,242.000000,-0.166614,0.035261,0.036879,-0.038767,0.954427,0.299775,-0.166614,0.035261,0.036879,-0.038767,0.954427,0.299775
0.243000,243.000000,-0.217916,0.060956,0.021736,-0.038815,0.953857,0.299671,-0.217916,0.060956,0.021736,-0.038815,0.953857,0.299671
0.244000,244.000000,-0.230358,-0.026058,0.018069,-0.039198,0.953441,0.300022,-0.230358,-0.026058,0.018069,-0.039198,0.953441,0.300022
0.245000,245.000000,-0.261323,-0.119844,-0.009112,-0.039943,0.953800,0.299371,-0.261323,-0.119844,-0.009112,-0.039943,0.953800,0.299371
0.246000,246.000000,-0.281646,-0.154967,0.017702,-0.040027,0.954065,0.299213,-0.281646,-0.154967,0.017702,-0.040027,0.954065,0.299213
0.247000,247.000000,-0.152869,-0.137755,0.043659,-0.039859,0.953853,0.299824,-0.152869,-0.137755,0.043659,-0.039859,0.953853,0.299824
0.248000,248.000000,-0.021410,-0.094335,0.035876,-0.039452,0.953252,0.299875,-0.021410,-0.094335,0.035876,-0.039452,0.953252,0.299875
0.249000,249.000000,0.044994,-0.103856,0.020619,-0.039451,0.952926,0.299887,0.044994,-0.103856,0.020619,-0.039451,0.952926,0.299887
0.250000,250.000000,0.060732,-0.119943,0.050049,-0.039446,0.952846,0.300263,0.060732,-0.119943,0.050049,-0.039446,0.952846,0.300263
0.251000,251.000000,-0.014996,-0.050573,0.070985,-0.039443,0.952361,0.300171,-0.014996,-0.050573,0.070985,-0.039443,0.952361,0.300171
0.252000,252.000000,-0.099909,-0.087361,0.043392,-0.039536,0.952153,0.299870,-0.099909,-0.087361,0.043392,-0.039536,0.952153,0.299870
0.253000,253.000000,-0.073289,-0.103380,0.042959,-0.039647,0.952751,0.300071,-0.073289,-0.103380,0.042959,-0.039647,0.952751,0.300071
0.254000,254.000000,-0.021130,0.012468,0.002233,-0.039679,0.953172,0.300027,-0.021130,0.012468,0.002233,-0.039679,0.953172,0.300027
0.255000,255.000000,-0.136158,0.034708,0.012852,-0.039505,0.952812,0.299649,-0.136158,0.034708,0.012852,-0.039505,0.952812,0.299649
0.256000,256.000000,-0.263392,-0.019472,0.016275,-0.038809,0.953092,0.299275,-0.263392,-0.019472,0.016275,-0.038809,0.953092,0.299275
0.257000,257.000000,-0.154841,-0.065891,0.029285,-0.039105,0.952977,0.299370,-0.154841,-0.065891,0.029285,-0.039105,0.952977,0.299370
0.258000,258.000000,-0.088800,-0.136349,0.032452,-0.040111,0.952859,0.299031,-0.088800,-0.136349,0.032452,-0.040111,0.952859,0.299031
0.259000,259.000000,-0.053012,-0.127183,-0.033179,-0.040721,0.952740,0.299322,-0.053012,-0.127183,-0.033179,-0.040721,0.952740,0.299322
0.260000,260.000000,-0.044305,-0.131641,-0.035764,-0.040589,0.952248,0.299668,-0.044305,-0.131641,-0.035764,-0.040589,0.952248,0.299668
0.261000,261.000000,-0.001871,-0.073274,-0.003766,-0.040088,0.951946,0.300581,-0.001871,-0.073274,-0.003766,-0.040088,0.951946,0.300581
0.262000,262.000000,-0.098160,-0.104952,0.024682,-0.039133,0.952332,0.300519,-0.098160,-0.104952,0.024682,-0.039133,0.952332,0.300519
0.263000,263.000000,-0.194682,-0.026121,0.012203,-0.039094,0.952977,0.299859,-0.194682,-0.026121,0.012203,-0.039094,0.952977,0.299859
0.264000,264.000000,-0.138545,-0.014007,-0.017888,-0.039270,0.953138,0.299512,-0.138545,-0.014007,-0.017888,-0.039270,0.953138,0.299512
0.265000,265.000000,-0.198011,-0.030975,0.041697,-0.039401,0.953454,0.299242,-0.198011,-0.030975,0.041697,-0.039401,0.953454,0.299242
0.266000,266.000000,-0.072434,-0.015094,0.075195,-0.039336,0.953526,0.299827,-0.072434,-0.015094,0.075195,-0.039336,0.953526,0.299827
0.267000,267.000000,0.084035,-0.011240,0.056141,-0.039598,0.953359,0.300064,0.084035,-0.011240,0.056141,-0.039598,0.953359,0.300064
0.268000,268.000000,0.195012,-0.003782,0.084036,-0.039573,0.953039,0.299935,0.195012,-0.003782,0.084036,-0.039573,0.953039,0.299935
0.269000,269.000000,0.109039,-0.008687,0.098081,-0.039660,0.952962,0.299717,0.109039,-0.008687,0.098081,-0.039660,0.952962,0.299717
0.270000,270.000000,0.015367,-0.036828,0.102116,-0.039401,0.952940,0.300033,0.015367,-0.036828,0.102116,-0.039401,0.952940,0.300033
0.271000,271.000000,-0.079890,0.029578,0.044002,-0.039526,0.953308,0.300111,-0.079890,0.029578,0.044002,-0.039526,0.953308,0.300111
0.272000,272.000000,-0.123572,0.038789,0.043161,-0.039650,0.953678,0.299572,-0.123572,0.038789,0.043161,-0.039650,0.953678,0.299572
0.273000,273.000000,-0.089207,0.028352,0.042477,-0.040151,0.952841,0.298804,-0.089207,0.028352,0.042477,-0.040151,0.952841,0.298804
0.274000,274.000000,-0.075228,-0.000893,-0.017558,-0.040089,0.951617,0.298808,-0.075228,-0.000893,-0.017558,-0.040089,0.951617,0.298808
0.275000,275.000000,-0.039062,-0.013935,-0.065424,-0.039607,0.951504,0.298342,-0.039062,-0.013935,-0.065424,-0.039607,0.951504,0.298342
0.276000,276.000000,-0.022318,-0.043703,-0.056919,-0.039302,0.951477,0.298226,-0.022318,-0.043703,-0.056919,-0.039302,0.951477,0.298226
0.277000,277.000000,-0.052000,-0.077638,-0.034647,-0.039509,0.951289,0.298383,-0.052000,-0.077638,-0.034647,-0.039509,0.951289,0.298383
0.278000,278.000000,-0.157917,-0.105414,-0.008565,-0.039563,0.951245,0.298791,-0.157917,-0.105414,-0.008565,-0.039563,0.951245,0.298791
0.279000,279.000000,-0.129079,-0.185905,-0.048784,-0.040502,0.951511,0.298805,-0.129079,-0.185905,-0.048784,-0.040502,0.951511,0.298805
0.280000,280.000000,0.044108,-0.172530,-0.046496,-0.040254,0.952406,0.299175,0.044108,-0.172530,-0.046496,-0.040254,0.952406,0.299175
0.281000,281.000000,0.079113,-0.029487,-0.045723,-0.039916,0.952532,0.299447,0.079113,-0.029487,-0.045723,-0.039916,0.952532,0.299447
0.282000,282.000000,0.160623,0.058256,-0.019639,-0.039376,0.952564,0.299418,0.160623,0.058256,-0.019639,-0.039376,0.952564,0.299418
0.283000,283.000000,0.166176,0.086261,-0.006838,-0.038781,0.952200,0.299315,0.166176,0.086261,-0.006838,-0.038781,0.952200,0.299315
0.284000,284.000000,0.041621,0.112349,0.003766,-0.038914,0.952481,0.299195,0.041621,0.112349,0.003766,-0.038914,0.952481,0.299195
0.285000,285.000000,-0.088218,0.112588,0.020248,-0.038936,0.953292,0.299997,-0.088218,0.112588,0.020248,-0.038936,0.953292,0.299997
0.286000,286.000000,-0.039628,0.139049,0.030124,-0.039221,0.953951,0.300563,-0.039628,0.139049,0.030124,-0.039221,0.953951,0.300563
0.287000,287.000000,-0.035161,0.092156,-0.027150,-0.039385,0.953464,0.300885,-0.035161,0.092156,-0.027150,-0.039385,0.953464,0.300885
0.288000,288.000000,-0.040571,0.094279,-0.034168,-0.039610,0.953165,0.300689,-0.040571,0.094279,-0.034168,-0.039610,0.953165,0.300689
0.289000,289.000000,-0.055244,0.009137,-0.015546,-0.039761,0.953277,0.300271,-0.055244,0.009137,-0.015546,-0.039761,0.953277,0.300271
0.290000,290.000000,-0.006955,-0.024611,-0.051382,-0.040074,0.953488,0.299988,-0.006955,-0.024611,-0.051382,-0.040074,0.953488,0.299988
0.291000,291.000000,-0.007091,0.007011,-0.013402,-0.040245,0.953540,0.299827,-0.007091,0.007011,-0.013402,-0.040245,0.953540,0.299827
0.292000,292.000000,-0.059874,0.027211,0.029313,-0.039630,0.953552,0.300064,-0.059874,0.027211,0.029313,-0.039630,0.953552,0.300064
0.293000,293.000000,-0.045572,0.024738,0.012638,-0.039574,0.953647,0.300491,-0.045572,0.024738,0.012638,-0.039574,0.953647,0.300491
0.294000,294.000000,-0.068262,0.017532,0.022079,-0.039938,0.953210,0.300689,-0.068262,0.017532,0.022079,-0.039938,0.953210,0.300689
0.295000,295.000000,-0.107460,-0.097202,0.031447,-0.040309,0.953196,0.300088,-0.107460,-0.097202,0.031447,-0.040309,0.953196,0.300088
0.296000,296.000000,-0.052050,-0.064631,-0.013577,-0.040399,0.953098,0.299206,-0.052050,-0.064631,-0.013577,-0.040399,0.953098,0.299206
0.297000,297.000000,0.014615,-0.063277,-0.031288,-0.040418,0.952611,0.298811,0.014615,-0.063277,-0.031288,-0.040418,0.952611,0.298811
0.298000,298.000000,0.005055,-0.029836,0.004269,-0.040050,0.953142,0.298707,0.005055,-0.029836,0.004269,-0.040050,0.953142,0.298707
0.299000,299.000000,-0.016133,0.010849,0.026455,-0.039677,0.953452,0.299328,-0.016133,0.010849,0.026455,-0.039677,0.953452,0.299328
0.300000,300.000000,0.006505,0.040883,0.064898,-0.039686,0.953250,0.299756,0.006505,0.040883,0.064898,-0.039686,0.953250,0.299756
0.301000,301.000000,0.011873,0.040978,0.067304,-0.040060,0.953388,0.299677,0.011873,0.040978,0.067304,-0.040060,0.953388,0.299677
0.302000,302.000000,-0.000516,0.000745,-0.011313,-0.039960,0.953143,0.299379,-0.000516,0.000745,-0.011313,-0.039960,0.953143,0.299379
0.303000,303.000000,-0.069795,0.037882,-0.036495,-0.040214,0.953270,0.299402,-0.069795,0.037882,-0.036495,-0.040214,0.953270,0.299402
0.304000,304.000000,-0.033533,0.079786,-0.050026,-0.039626,0.953484,0.299308,-0.033533,0.079786,-0.050026,-0.039626,0.953484,0.299308
0.305000,305.000000,-0.085814,0.057273,-0.013594,-0.038461,0.954180,0.299648,-0.085814,0.057273,-0.013594,-0.038461,0.954180,0.299648
0.306000,306.000000,-0.072919,0.018944,-0.031335,-0.038368,0.953976,0.299641,-0.072919,0.018944,-0.031335,-0.038368,0.953976,0.299641
0.307000,307.000000,-0.169769,-0.016879,0.011521,-0.038716,0.953650,0.299735,-0.169769,-0.016879,0.011521,-0.038716,0.953650,0.299735
0.308000,308.000000,-0.238765,-0.084808,0.042166,-0.038705,0.953480,0.300035,-0.238765,-0.084808,0.042166,-0.038705,0.953480,0.300035
0.309000,309.000000,-0.149168,-0.181330,0.055564,-0.038983,0.953350,0.300295,-0.149168,-0.181330,0.055564,-0.038983,0.953350,0.300295
0.310000,310.000000,-0.187444,-0.157209,0.026357,-0.038688,0.953318,0.299981,-0.187444,-0.157209,0.026357,-0.038688,0.953318,0.299981
0.311000,311.000000,-0.150138,-0.098537,-0.034357,-0.038527,0.953217,0.299719,-0.150138,-0.098537,-0.034357,-0.038527,0.953217,0.299719
0.312000,312.000000,-0.027522,-0.051209,-0.029617,-0.038577,0.952912,0.299103,-0.027522,-0.051209,-0.029617,-0.038577,0.952912,0.299103
0.313000,313.000000,0.036423,-0.040319,0.031077,-0.039145,0.952924,0.298219,0.036423,-0.040319,0.031077,-0.039145,0.952924,0.298219
0.314000,314.000000,-0.028037,-0.057977,-0.013054,-0.038821,0.953204,0.297999,-0.028037,-0.057977,-0.013054,-0.038821,0.953204,0.297999
0.315000,315.000000,0.049694,-0.062426,-0.004493,-0.039208,0.953277,0.298228,0.049694,-0.062426,-0.004493,-0.039208,0.953277,0.298228
0.316000,316.000000,0.048353,-0.049844,0.044058,-0.040043,0.953298,0.298198,0.048353,-0.049844,0.044058,-0.040043,0.953298,0.298198
0.317000,317.000000,-0.019674,-0.053274,0.062601,-0.040248,0.952473,0.298376,-0.019674,-0.053274,0.062601,-0.040248,0.952473,0.298376
0.318000,318.000000,-0.029766,-0.000387,0.053620,-0.040017,0.951440,0.299069,-0.029766,-0.000387,0.053620,-0.040017,0.951440,0.299069
0.319000,319.000000,-0.005710,0.038692,0.037865,-0.039870,0.950819,0.299145,-0.005710,0.038692,0.037865,-0.039870,0.950819,0.299145
0.320000,320.000000,-0.039152,0.068147,0.034412,-0.039924,0.950758,0.298982,-0.039152,0.068147,0.034412,-0.039924,0.950758,0.298982
0.321000,321.000000,-0.080818,0.048747,0.040418,-0.040029,0.951115,0.298572,-0.080818,0.048747,0.040418,-0.040029,0.951115,0.298572
0.322000,322.000000,-0.104390,0.023567,0.028672,-0.039960,0.951853,0.299207,-0.104390,0.023567,0.028672,-0.039960,0.951853,0.299207
0.323000,323.000000,-0.076519,-0.047958,0.046066,-0.039663,0.952495,0.299450,-0.076519,-0.047958,0.046066,-0.039663,0.952495,0.299450
0.324000,324.000000,0.002840,-0.085528,0.016506,-0.039591,0.952649,0.299231,0.002840,-0.085528,0.016506,-0.039591,0.952649,0.299231
0.325000,325.000000,0.034640,-0.088028,0.008968,-0.039573,0.952872,0.299731,0.034640,-0.088028,0.008968,-0.039573,0.952872,0.299731
0.326000,326.000000,0.015895,-0.015137,0.053692,-0.039382,0.953207,0.300222,0.015895,-0.015137,0.053692,-0.039382,0.953207,0.300222
0.327000,327.000000,0.017867,-0.010884,0.064448,-0.039243,0.953839,0.300059,0.017867,-0.010884,0.064448,-0.039243,0.953839,0.300059
0.328000,328.000000,-0.068050,-0.023384,0.054268,-0.039019,0.954637,0.300014,-0.068050,-0.023384,0.054268,-0.039019,0.954637,0.300014
0.329000,329.000000,-0.141643,-0.006392,0.045534,-0.038499,0.954924,0.299908,-0.141643,-0.006392,0.045534,-0.038499,0.954924,0.299908
0.330000,330.000000,-0.165469,0.017431,0.023731,-0.038556,0.954994,0.300069,-0.165469,0.017431,0.023731,-0.038556,0.954994,0.300069
0.331000,331.000000,0.014668,-0.011018,0.030646,-0.038197,0.954547,0.301126,0.014668,-0.011018,0.030646,-0.038197,0.954547,0.301126
0.332000,332.000000,0.078024,-0.056863,-0.000779,-0.037835,0.954528,0.300918,0.078024,-0.056863,-0.000779,-0.037835,0.954528,0.300918
0.333000,333.000000,0.134266,-0.001536,-0.008576,-0.038401,0.954888,0.299944,0.134266,-0.001536,-0.008576,-0.038401,0.954888,0.299944
0.334000,334.000000,0.161273,0.065273,0.009433,-0.038818,0.954976,0.299897,0.161273,0.065273,0.009433,-0.038818,0.954976,0.299897
0.335000,335.000000,0.080198,0.047741,0.000960,-0.038271,0.953892,0.300159,0.080198,0.047741,0.000960,-0.038271,0.953892,0.300159
0.336000,336.000000,-0.138762,0.077332,0.019843,-0.037765,0.952796,0.300222,-0.138762,0.077332,0.019843,-0.037765,0.952796,0.300222
0.337000,337.000000,-0.125217,0.071297,0.010640,-0.038013,0.952808,0.299873,-0.125217,0.071297,0.010640,-0.038013,0.952808,0.299873
0.338000,338.000000,-0.062499,0.042719,0.007944,-0.037798,0.953088,0.299415,-0.062499,0.042719,0.007944,-0.037798,0.953088,0.299415
0.339000,339.000000,-0.087140,0.003105,0.027671,-0.037933,0.952883,0.299582,-0.087140,0.003105,0.027671,-0.037933,0.952883,0.299582
0.340000,340.000000,-0.067245,0.020186,-0.014520,-0.038244,0.952282,0.299716,-0.067245,0.020186,-0.014520,-0.038244,0.952282,0.299716
0.341000,341.000000,-0.010327,0.024679,-0.038071,-0.038594,0.951947,0.300030,-0.010327,0.024679,-0.038071,-0.038594,0.951947,0.300030
0.342000,342.000000,-0.015983,0.052733,-0.016933,-0.038957,0.952047,0.300015,-0.015983,0.052733,-0.016933,-0.038957,0.952047,0.300015
0.343000,343.000000,-0.089519,0.052305,0.015209,-0.038956,0.951980,0.300382,-0.089519,0.052305,0.015209,-0.038956,0.951980,0.300382
0.344000,344.000000,-0.046632,0.024475,0.015892,-0.038588,0.951969,0.300281,-0.046632,0.024475,0.015892,-0.038588,0.951969,0.300281
0.345000,345.000000,0.004298,-0.015863,-0.023906,-0.038117,0.952704,0.300345,0.004298,-0.015863,-0.023906,-0.038117,0.952704,0.300345
0.346000,346.000000,0.049675,0.021706,-0.033724,-0.037818,0.952792,0.299991,0.049675,0.021706,-0.033724,-0.037818,0.952792,0.299991
0.347000,347.000000,0.013614,-0.002782,0.023883,-0.038028,0.952534,0.299539,0.013614,-0.002782,0.023883,-0.038028,0.952534,0.299539
0.348000,348.000000,-0.008714,-0.028607,0.071064,-0.038364,0.952010,0.299341,-0.008714,-0.028607,0.071064,-0.038364,0.952010,0.299341
0.349000,349.000000,-0.087325,0.018274,0.042890,-0.038541,0.951515,0.299297,-0.087325,0.018274,0.042890,-0.038541,0.951515,0.299297
0.350000,350.000000,-0.085345,0.088718,0.016114,-0.038583,0.951949,0.299191,-0.085345,0.088718,0.016114,-0.038583,0.951949,0.299191
0.351000,351.000000,-0.044571,0.045007,-0.036967,-0.038772,0.952425,0.299445,-0.044571,0.045007,-0.036967,-0.038772,0.952425,0.299445
0.352000,352.000000,-0.094347,-0.018332,-0.036081,-0.038354,0.952349,0.299596,-0.094347,-0.018332,-0.036081,-0.038354,0.952349,0.299596
0.353000,353.000000,-0.046986,-0.099183,-0.009650,-0.037603,0.952515,0.299992,-0.046986,-0.099183,-0.009650,-0.037603,0.952515,0.299992
0.354000,354.000000,-0.069348,-0.078345,0.049765,-0.037235,0.952652,0.299716,-0.069348,-0.078345,0.049765,-0.037235,0.952652,0.299716
0.355000,355.000000,-0.094996,-0.066117,0.004624,-0.037426,0.952128,0.299282,-0.094996,-0.066117,0.004624,-0.037426,0.952128,0.299282
0.356000,356.000000,-0.027524,-0.010515,-0.006776,-0.037845,0.951812,0.299000,-0.027524,-0.010515,-0.006776,-0.037845,0.951812,0.299000
0.357000,357.000000,-0.044107,0.062472,0.017134,-0.038784,0.951924,0.299218,-0.044107,0.062472,0.017134,-0.038784,0.951924,0.299218
0.358000,358.000000,-0.068639,-0.039470,0.036284,-0.038918,0.951674,0.299272,-0.068639,-0.039470,0.036284,-0.038918,0.951674,0.299272
0.359000,359.000000,-0.187834,-0.070112,0.081471,-0.038951,0.951337,0.299191,-0.187834,-0.070112,0.081471,-0.038951,0.951337,0.299191
0.360000,360.000000,-0.130459,-0.057509,0.032319,-0.038302,0.951718,0.299444,-0.130459,-0.057509,0.032319,-0.038302,0.951718,0.299444
0.361000,361.000000,-0.017006,-0.035250,-0.013435,-0.038232,0.952182,0.299782,-0.017006,-0.035250,-0.013435,-0.038232,0.952182,0.299782
0.362000,362.000000,0.017853,-0.003506,-0.004510,-0.038403,0.952198,0.299956,0.017853,-0.003506,-0.004510,-0.038403,0.952198,0.299956
0.363000,363.000000,-0.012410,0.044044,0.024368,-0.038451,0.952574,0.299439,-0.012410,0.044044,0.024368,-0.038451,0.952574,0.299439
0.364000,364.000000,0.113884,0.022042,0.070369,-0.038274,0.952760,0.299590,0.113884,0.022042,0.070369,-0.038274,0.952760,0.299590
0.365000,365.000000,0.077920,0.029592,0.042181,-0.038045,0.952621,0.299719,0.077920,0.029592,0.042181,-0.038045,0.952621,0.299719
0.366000,366.000000,0.003035,-0.015316,0.022508,-0.037996,0.952396,0.299195,0.003035,-0.015316,0.022508,-0.037996,0.952396,0.299195
0.367000,367.000000,-0.003020,-0.052891,-0.035833,-0.038169,0.952527,0.299161,-0.003020,-0.052891,-0.035833,-0.038169,0.952527,0.299161
0.368000,368.000000,0.007799,-0.068111,-0.016870,-0.038116,0.952742,0.299801,0.007799,-0.068111,-0.016870,-0.038116,0.952742,0.299801
0.369000,369.000000,-0.017188,-0.004290,-0.005314,-0.038196,0.953069,0.299492,-0.017188,-0.004290,-0.005314,-0.038196,0.953069,0.299492
0.370000,370.000000,-0.016584,0.004466,-0.002723,-0.038777,0.952963,0.298682,-0.016584,0.004466,-0.002723,-0.038777,0.952963,0.298682
0.371000,371.000000,-0.089247,-0.066118,0.004909,-0.038636,0.953219,0.299224,-0.089247,-0.066118,0.004909,-0.038636,0.953219,0.299224
0.372000,372.000000,-0.173173,-0.109686,0.013997,-0.038319,0.953747,0.299814,-0.173173,-0.109686,0.013997,-0.038319,0.953747,0.299814
0.373000,373.000000,-0.139427,-0.113530,-0.003980,-0.038615,0.953784,0.300144,-0.139427,-0.113530,-0.003980,-0.038615,0.953784,0.300144
0.374000,374.000000,-0.018342,-0.068551,-0.022148,-0.038781,0.953791,0.299760,-0.018342,-0.068551,-0.022148,-0.038781,0.953791,0.299760
0.375000,375.000000,0.024350,-0.057762,-0.013392,-0.039192,0.953239,0.299396,0.024350,-0.057762,-0.013392,-0.039192,0.953239,0.299396
0.376000,376.000000,0.074277,-0.080866,0.028276,-0.039104,0.953477,0.299398,0.074277,-0.080866,0.028276,-0.039104,0.953477,0.299398
0.377000,377.000000,0.012695,-0.033157,0.045445,-0.039077,0.954184,0.299862,0.012695,-0.033157,0.045445,-0.039077,0.954184,0.299862
0.378000,378.000000,-0.068791,-0.035171,0.016815,-0.038888,0.954260,0.300065,-0.068791,-0.035171,0.016815,-0.038888,0.954260,0.300065
0.379000,379.000000,-0.108314,-0.055613,0.049923,-0.039030,0.954276,0.299836,-0.108314,-0.055613,0.049923,-0.039030,0.954276,0.299836
0.380000,380.000000,-0.091237,-0.080691,0.050852,-0.039338,0.954001,0.299970,-0.091237,-0.080691,0.050852,-0.039338,0.954001,0.299970
0.381000,381.000000,-0.073654,-0.053690,0.064293,-0.039782,0.953942,0.300099,-0.073654,-0.053690,0.064293,-0.039782,0.953942,0.300099
0.382000,382.000000,-0.089248,-0.033809,0.041190,-0.039708,0.953648,0.299853,-0.089248,-0.033809,0.041190,-0.039708,0.953648,0.299853
0.383000,383.000000,0.059984,0.010778,0.048103,-0.039972,0.953201,0.299984,0.059984,0.010778,0.048103,-0.039972,0.953201,0.299984
0.384000,384.000000,0.148955,0.008497,0.043032,-0.039764,0.953275,0.299178,0.148955,0.008497,0.043032,-0.039764,0.953275,0.299178
0.385000,385.000000,0.117303,-0.031511,0.048844,-0.039988,0.953486,0.299165,0.117303,-0.031511,0.048844,-0.039988,0.953486,0.299165
0.386000,386.000000,0.023469,-0.008054,0.030500,-0.040131,0.953440,0.299347,0.023469,-0.008054,0.030500,-0.040131,0.953440,0.299347
0.387000,387.000000,-0.039612,-0.008786,0.032791,-0.039979,0.953331,0.299297,-0.039612,-0.008786,0.032791,-0.039979,0.953331,0.299297
0.388000,388.000000,-0.041779,-0.029570,-0.026608,-0.039951,0.952469,0.298643,-0.041779,-0.029570,-0.026608,-0.039951,0.952469,0.298643
0.389000,389.000000,-0.030415,-0.120475,-0.021067,-0.039669,0.952174,0.298482,-0.030415,-0.120475,-0.021067,-0.039669,0.952174,0.298482
0.390000,390.000000,0.011893,-0.055943,0.019785,-0.039135,0.952197,0.298440,0.011893,-0.055943,0.019785,-0.039135,0.952197,0.298440
0.391000,391.000000,-0.030911,-0.059841,0.003735,-0.039088,0.952387,0.298894,-0.030911,-0.059841,0.003735,-0.039088,0.952387,0.298894
0.392000,392.000000,-0.054170,-0.113927,-0.013071,-0.039176,0.952522,0.298356,-0.054170,-0.113927,-0.013071,-0.039176,0.952522,0.298356
0.393000,393.000000,-0.085096,-0.061228,-0.023680,-0.038735,0.952002,0.298131,-0.085096,-0.061228,-0.023680,-0.038735,0.952002,0.298131
0.394000,394.000000,-0.018121,-0.035393,-0.020112,-0.039180,0.951971,0.298544,-0.018121,-0.035393,-0.020112,-0.039180,0.951971,0.298544
0.395000,395.000000,0.091317,-0.003166,-0.026467,-0.039850,0.952890,0.298274,0.091317,-0.003166,-0.026467,-0.039850,0.952890,0.298274
0.396000,396.000000,0.117644,0.017539,-0.014770,-0.039921,0.953481,0.297743,0.117644,0.017539,-0.014770,-0.039921,0.953481,0.297743
0.397000,397.000000,0.143826,-0.010614,0.040981,-0.039840,0.953808,0.297984,0.143826,-0.010614,0.040981,-0.039840,0.953808,0.297984
0.398000,398.000000,0.023860,-0.023811,0.062051,-0.039820,0.953517,0.298045,0.023860,-0.023811,0.062051,-0.039820,0.953517,0.298045
0.399000,399.000000,-0.045168,0.025693,0.073738,-0.039542,0.953170,0.298153,-0.045168,0.025693,0.073738,-0.039542,0.953170,0.298153
0.400000,400.000000,0.038283,0.004609,0.062742,-0.039934,0.953365,0.298921,0.038283,0.004609,0.062742,-0.039934,0.953365,0.298921
0.401000,401.000000,-0.101576,0.000186,0.001293,-0.039934,0.953413,0.299289,-0.101576,0.000186,0.001293,-0.039934,0.953413,0.299289
0.402000,402.000000,-0.122353,-0.033861,-0.033500,-0.039744,0.953519,0.299746,-0.122353,-0.033861,-0.033500,-0.039744,0.953519,0.299746
0.403000,403.000000,-0.081137,-0.055915,-0.048804,-0.039513,0.953357,0.299761,-0.081137,-0.055915,-0.048804,-0.039513,0.953357,0.299761
0.404000,404.000000,-0.104660,-0.053868,0.000875,-0.039742,0.952857,0.299676,-0.104660,-0.053868,0.000875,-0.039742,0.952857,0.299676
0.405000,405.000000,-0.070714,-0.119907,-0.013927,-0.039519,0.952735,0.299840,-0.070714,-0.119907,-0.013927,-0.039519,0.952735,0.299840
0.406000,406.000000,-0.121748,-0.116061,0.002524,-0.039928,0.953260,0.299513,-0.121748,-0.116061,0.002524,-0.039928,0.953260,0.299513
0.407000,407.000000,-0.140638,-0.115567,0.026459,-0.040026,0.953109,0.299156,-0.140638,-0.115567,0.026459,-0.040026,0.953109,0.299156
0.408000,408.000000,-0.124972,-0.043017,0.005458,-0.039772,0.952884,0.299531,-0.124972,-0.043017,0.005458,-0.039772,0.952884,0.299531
0.409000,409.000000,-0.113987,-0.071629,0.027161,-0.039434,0.952829,0.299802,-0.113987,-0.071629,0.027161,-0.039434,0.952829,0.299802
0.410000,410.000000,-0.164805,-0.124690,0.039470,-0.039163,0.953095,0.300049,-0.164805,-0.124690,0.039470,-0.039163,0.953095,0.300049
0.411000,411.000000,-0.309981,-0.083673,0.029821,-0.039103,0.953072,0.300107,-0.309981,-0.083673,0.029821,-0.039103,0.953072,0.300107
0.412000,412.000000,-0.172332,-0.067358,0.052697,-0.038991,0.953436,0.300122,-0.172332,-0.067358,0.052697,-0.038991,0.953436,0.300122
0.413000,413.000000,-0.079764,-0.050516,0.037979,-0.039146,0.953243,0.299945,-0.079764,-0.050516,0.037979,-0.039146,0.953243,0.299945
0.414000,414.000000,-0.063071,-0.014060,0.034758,-0.039465,0.952825,0.299539,-0.063071,-0.014060,0.034758,-0.039465,0.952825,0.299539
0.415000,415.000000,0.040787,-0.039662,0.019928,-0.039356,0.952076,0.299255,0.040787,-0.039662,0.019928,-0.039356,0.952076,0.299255
0.416000,416.000000,0.040203,-0.092216,0.023610,-0.038495,0.951622,0.299733,0.040203,-0.092216,0.023610,-0.038495,0.951622,0.299733
0.417000,417.000000,-0.013855,-0.097916,0.024573,-0.038103,0.951602,0.299663,-0.013855,-0.097916,0.024573,-0.038103,0.951602,0.299663
0.418000,418.000000,-0.086634,-0.085899,-0.047850,-0.038656,0.951967,0.299559,-0.086634,-0.085899,-0.047850,-0.038656,0.951967,0.299559
0.419000,419.000000,-0.085064,-0.056420,-0.025888,-0.038691,0.952239,0.299901,-0.085064,-0.056420,-0.025888,-0.038691,0.952239,0.299901
0.420000,420.000000,-0.091740,-0.028098,0.045472,-0.038423,0.952765,0.300071,-0.091740,-0.028098,0.045472,-0.038423,0.952765,0.300071
0.421000,421.000000,-0.107412,-0.080467,0.036454,-0.038827,0.953264,0.300022,-0.107412,-0.080467,0.036454,-0.038827,0.953264,0.300022
0.422000,422.000000,-0.137782,-0.113087,0.054439,-0.039296,0.953948,0.299733,-0.137782,-0.113087,0.054439,-0.039296,0.953948,0.299733
0.423000,423.000000,-0.263816,-0.127801,0.019862,-0.039499,0.954294,0.299851,-0.263816,-0.127801,0.019862,-0.039499,0.954294,0.299851
0.424000,424.000000,-0.288073,-0.057783,0.031467,-0.039455,0.954283,0.300157,-0.288073,-0.057783,0.031467,-0.039455,0.954283,0.300157
0.425000,425.000000,-0.173815,-0.060714,0.053338,-0.039541,0.953634,0.300143,-0.173815,-0.060714,0.053338,-0.039541,0.953634,0.300143
0.426000,426.000000,-0.060053,-0.095038,0.044803,-0.039838,0.953481,0.300325,-0.060053,-0.095038,0.044803,-0.039838,0.953481,0.300325
0.427000,427.000000,0.041163,-0.123912,0.035672,-0.039719,0.953814,0.300551,0.041163,-0.123912,0.035672,-0.039719,0.953814,0.300551
0.428000,428.000000,0.078701,-0.078137,0.027022,-0.039692,0.953804,0.300886,0.078701,-0.078137,0.027022,-0.039692,0.953804,0.300886
0.429000,429.000000,0.167908,-0.053916,0.044401,-0.039313,0.953894,0.301705,0.167908,-0.053916,0.044401,-0.039313,0.953894,0.301705
0.430000,430.000000,0.023048,-0.027977,0.036223,-0.039220,0.953544,0.301625,0.023048,-0.027977,0.036223,-0.039220,0.953544,0.301625
0.431000,431.000000,-0.026085,0.005625,0.040786,-0.039291,0.952998,0.300956,-0.026085,0.005625,0.040786,-0.039291,0.952998,0.300956
0.432000,432.000000,-0.017846,0.047408,0.068384,-0.039218,0.952863,0.300515,-0.017846,0.047408,0.068384,-0.039218,0.952863,0.300515
0.433000,433.000000,0.156426,0.010933,0.040656,-0.039114,0.953108,0.300035,0.156426,0.010933,0.040656,-0.039114,0.953108,0.300035
0.434000,434.000000,0.145294,0.021817,-0.005332,-0.039365,0.953724,0.299923,0.145294,0.021817,-0.005332,-0.039365,0.953724,0.299923
0.435000,435.000000,0.115395,0.017930,0.003577,-0.039146,0.953869,0.300543,0.115395,0.017930,0.003577,-0.039146,0.953869,0.300543
0.436000,436.000000,0.001613,-0.021656,0.026742,-0.039185,0.952983,0.300604,0.001613,-0.021656,0.026742,-0.039185,0.952983,0.300604
0.437000,437.000000,-0.011768,-0.045433,0.058706,-0.038824,0.952211,0.299879,-0.011768,-0.045433,0.058706,-0.038824,0.952211,0.299879
0.438000,438.000000,0.025235,-0.019122,0.019429,-0.038737,0.952387,0.299332,0.025235,-0.019122,0.019429,-0.038737,0.952387,0.299332
0.439000,439.000000,-0.025804,-0.025678,0.003675,-0.039367,0.952246,0.298557,-0.025804,-0.025678,0.003675,-0.039367,0.952246,0.298557
0.440000,440.000000,0.008118,-0.007602,-0.007315,-0.039893,0.952770,0.298556,0.008118,-0.007602,-0.007315,-0.039893,0.952770,0.298556
0.441000,441.000000,-0.017206,-0.049060,-0.009513,-0.040021,0.953547,0.298646,-0.017206,-0.049060,-0.009513,-0.040021,0.953547,0.298646
0.442000,442.000000,-0.023038,0.033772,0.003038,-0.039489,0.953267,0.299312,-0.023038,0.033772,0.003038,-0.039489,0.953267,0.299312
0.443000,443.000000,-0.024199,0.014306,0.019572,-0.038712,0.953567,0.299744,-0.024199,0.014306,0.019572,-0.038712,0.953567,0.299744
0.444000,444.000000,-0.018359,-0.037159,0.017018,-0.038711,0.954011,0.299755,-0.018359,-0.037159,0.017018,-0.038711,0.954011,0.299755
0.445000,445.000000,-0.030320,0.023305,0.016264,-0.038525,0.953477,0.299665,-0.030320,0.023305,0.016264,-0.038525,0.953477,0.299665
0.446000,446.000000,-0.057731,0.011371,0.049562,-0.038481,0.951225,0.299652,-0.057731,0.011371,0.049562,-0.038481,0.951225,0.299652
0.447000,447.000000,-0.010434,-0.025258,0.050915,-0.038940,0.949471,0.299011,-0.010434,-0.025258,0.050915,-0.038940,0.949471,0.299011
0.448000,448.000000,0.052910,-0.027129,0.004252,-0.039056,0.948304,0.298118,0.052910,-0.027129,0.004252,-0.039056,0.948304,0.298118
0.449000,449.000000,0.047355,0.019779,0.006229,-0.038992,0.948117,0.298177,0.047355,0.019779,0.006229,-0.038992,0.948117,0.298177
0.450000,450.000000,0.026237,0.063855,0.000060,-0.038606,0.948445,0.298373,0.026237,0.063855,0.000060,-0.038606,0.948445,0.298373
0.451000,451.000000,-0.058967,0.080575,0.019022,-0.038141,0.948986,0.298695,-0.058967,0.080575,0.019022,-0.038141,0.948986,0.298695
0.452000,452.000000,-0.126665,0.065073,0.010425,-0.038214,0.949671,0.298496,-0.126665,0.065073,0.010425,-0.038214,0.949671,0.298496
0.453000,453.000000,-0.216275,-0.038236,0.015718,-0.038695,0.950305,0.298448,-0.216275,-0.038236,0.015718,-0.038695,0.950305,0.298448
0.454000,454.000000,-0.185387,-0.029726,0.016381,-0.038248,0.950917,0.299355,-0.185387,-0.029726,0.016381,-0.038248,0.950917,0.299355
0.455000,455.000000,-0.151500,-0.073577,0.043214,-0.038599,0.951806,0.299758,-0.151500,-0.073577,0.043214,-0.038599,0.951806,0.299758
0.456000,456.000000,-0.135560,-0.057813,0.029993,-0.039143,0.952949,0.299765,-0.135560,-0.057813,0.029993,-0.039143,0.952949,0.299765
0.457000,457.000000,-0.097792,-0.128082,0.013303,-0.039462,0.953501,0.299862,-0.097792,-0.128082,0.013303,-0.039462,0.953501,0.299862
0.458000,458.000000,-0.113535,-0.086247,0.036124,-0.039445,0.953722,0.300348,-0.113535,-0.086247,0.036124,-0.039445,0.953722,0.300348
0.459000,459.000000,-0.036934,-0.042614,0.027518,-0.039162,0.953868,0.300554,-0.036934,-0.042614,0.027518,-0.039162,0.953868,0.300554
0.460000,460.000000,-0.039125,-0.044943,0.018884,-0.038998,0.954367,0.301065,-0.039125,-0.044943,0.018884,-0.038998,0.954367,0.301065
0.461000,461.000000,-0.092951,-0.025664,0.043641,-0.039141,0.954582,0.301465,-0.092951,-0.025664,0.043641,-0.039141,0.954582,0.301465
0.462000,462.000000,-0.113117,-0.034426,0.036337,-0.038528,0.954353,0.301281,-0.113117,-0.034426,0.036337,-0.038528,0.954353,0.301281
0.463000,463.000000,-0.132009,0.010181,0.014609,-0.038290,0.953647,0.301054,-0.132009,0.010181,0.014609,-0.038290,0.953647,0.301054
0.464000,464.000000,-0.076530,-0.085309,0.022446,-0.038226,0.953572,0.301465,-0.076530,-0.085309,0.022446,-0.038226,0.953572,0.301465
0.465000,465.000000,-0.016308,-0.102516,0.037200,-0.037655,0.953557,0.301371,-0.016308,-0.102516,0.037200,-0.037655,0.953557,0.301371
0.466000,466.000000,-0.027437,-0.126337,0.034360,-0.037614,0.954108,0.301159,-0.027437,-0.126337,0.034360,-0.037614,0.954108,0.301159
0.467000,467.000000,0.062063,-0.158659,0.039642,-0.037696,0.954333,0.301479,0.062063,-0.158659,0.039642,-0.037696,0.954333,0.301479
0.468000,468.000000,-0.075264,-0.159695,-0.037281,-0.038078,0.954573,0.302024,-0.075264,-0.159695,-0.037281,-0.038078,0.954573,0.302024
0.469000,469.000000,-0.148561,-0.132786,-0.009512,-0.038821,0.954451,0.301884,-0.148561,-0.132786,-0.009512,-0.038821,0.954451,0.301884
0.470000,470.000000,-0.106924,-0.119433,-0.009892,-0.038724,0.954513,0.301756,-0.106924,-0.119433,-0.009892,-0.038724,0.954513,0.301756
0.471000,471.000000,-0.010566,-0.090644,-0.004014,-0.038880,0.955267,0.302186,-0.010566,-0.090644,-0.004014,-0.038880,0.955267,0.302186
0.472000,472.000000,-0.080535,-0.083259,0.004788,-0.039010,0.955637,0.303027,-0.080535,-0.083259,0.004788,-0.039010,0.955637,0.303027
0.473000,473.000000,-0.118087,-0.114362,-0.039356,-0.039320,0.955818,0.303325,-0.118087,-0.114362,-0.039356,-0.039320,0.955818,0.303325
0.474000,474.000000,-0.094302,-0.115291,-0.037135,-0.039671,0.956134,0.302659,-0.094302,-0.115291,-0.037135,-0.039671,0.956134,0.302659
0.475000,475.000000,-0.107620,-0.128028,-0.009804,-0.039388,0.955656,0.301758,-0.107620,-0.128028,-0.009804,-0.039388,0.955656,0.301758
0.476000,476.000000,-0.157530,-0.098074,0.003729,-0.038952,0.954706,0.301075,-0.157530,-0.098074,0.003729,-0.038952,0.954706,0.301075
0.477000,477.000000,0.023308,-0.084251,0.025680,-0.038671,0.953455,0.300356,0.023308,-0.084251,0.025680,-0.038671,0.953455,0.300356
0.478000,478.000000,0.180518,0.004825,-0.015912,-0.038976,0.952597,0.300372,0.180518,0.004825,-0.015912,-0.038976,0.952597,0.300372
0.479000,479.000000,0.213131,0.065790,-0.019047,-0.039244,0.951467,0.299918,0.213131,0.065790,-0.019047,-0.039244,0.951467,0.299918
0.480000,480.000000,0.054432,0.067158,0.001125,-0.039406,0.950171,0.299073,0.054432,0.067158,0.001125,-0.039406,0.950171,0.299073
0.481000,481.000000,0.002548,-0.005674,-0.007428,-0.039077,0.949857,0.297938,0.002548,-0.005674,-0.007428,-0.039077,0.949857,0.297938
0.482000,482.000000,-0.017784,-0.002466,0.010268,-0.038999,0.949692,0.297664,-0.017784,-0.002466,0.010268,-0.038999,0.949692,0.297664
0.483000,483.000000,0.069194,-0.008155,0.006983,-0.039255,0.949559,0.297787,0.069194,-0.008155,0.006983,-0.039255,0.949559,0.297787
0.484000,484.000000,0.077185,-0.023081,-0.000229,-0.039128,0.950358,0.297813,0.077185,-0.023081,-0.000229,-0.039128,0.950358,0.297813
0.485000,485.000000,0.025743,-0.046657,-0.014804,-0.039190,0.950738,0.298190,0.025743,-0.046657,-0.014804,-0.039190,0.950738,0.298190
0.486000,486.000000,-0.053163,-0.031790,0.008827,-0.039664,0.951294,0.299209,-0.053163,-0.031790,0.008827,-0.039664,0.951294,0.299209
0.487000,487.000000,-0.085831,-0.034462,0.007943,-0.039771,0.951893,0.299914,-0.085831,-0.034462,0.007943,-0.039771,0.951893,0.299914
0.488000,488.000000,-0.038868,-0.061951,0.020671,-0.039516,0.952683,0.299619,-0.038868,-0.061951,0.020671,-0.039516,0.952683,0.299619
0.489000,489.000000,0.046033,-0.102956,0.016667,-0.038894,0.954076,0.299638,0.046033,-0.102956,0.016667,-0.038894,0.954076,0.299638
0.490000,490.000000,0.092065,-0.125646,-0.017498,-0.038649,0.954509,0.300565,0.092065,-0.125646,-0.017498,-0.038649,0.954509,0.300565
0.491000,491.000000,0.229581,-0.144210,-0.006834,-0.038405,0.954338,0.300973,0.229581,-0.144210,-0.006834,-0.038405,0.954338,0.300973
0.492000,492.000000,0.116466,-0.108624,-0.009741,-0.038447,0.954022,0.300793,0.116466,-0.108624,-0.009741,-0.038447,0.954022,0.300793
0.493000,493.000000,0.109082,-0.093431,-0.010611,-0.038270,0.954128,0.300191,0.109082,-0.093431,-0.010611,-0.038270,0.954128,0.300191
0.494000,494.000000,-0.038357,-0.030319,-0.023209,-0.038330,0.954248,0.299303,-0.038357,-0.030319,-0.023209,-0.038330,0.954248,0.299303
0.495000,495.000000,-0.240745,0.018421,-0.058733,-0.038152,0.954276,0.299088,-0.240745,0.018421,-0.058733,-0.038152,0.954276,0.299088
0.496000,496.000000,-0.142386,0.016352,-0.001844,-0.038018,0.953817,0.299130,-0.142386,0.016352,-0.001844,-0.038018,0.953817,0.299130
0.497000,497.000000,0.027101,0.028885,0.064246,-0.038176,0.952315,0.299055,0.027101,0.028885,0.064246,-0.038176,0.952315,0.299055
0.498000,498.000000,0.073900,0.045930,0.000689,-0.038772,0.951677,0.298485,0.073900,0.045930,0.000689,-0.038772,0.951677,0.298485
0.499000,499.000000,0.098212,0.023243,-0.047832,-0.039286,0.951337,0.298075,0.098212,0.023243,-0.047832,-0.039286,0.951337,0.298075
0.500000,500.000000,0.024837,-0.002526,-0.039185,-0.039227,0.950885,0.298162,0.024837,-0.002526,-0.039185,-0.039227,0.950885,0.298162
0.501000,501.000000,-0.093142,0.025297,-0.043176,-0.039397,0.951052,0.298646,-0.093142,0.025297,-0.043176,-0.039397,0.951052,0.298646
0.502000,502.000000,-0.214237,0.045648,0.003038,-0.039624,0.951922,0.299134,-0.214237,0.045648,0.003038,-0.039624,0.951922,0.299134
0.503000,503.000000,-0.197036,-0.029638,-0.006050,-0.039574,0.952880,0.299712,-0.197036,-0.029638,-0.006050,-0.039574,0.952880,0.299712
0.504000,504.000000,-0.139374,-0.040590,0.011053,-0.039280,0.953762,0.299754,-0.139374,-0.040590,0.011053,-0.039280,0.953762,0.299754
0.505000,505.000000,-0.179507,-0.162771,0.002652,-0.038937,0.953789,0.299484,-0.179507,-0.162771,0.002652,-0.038937,0.953789,0.299484
0.506000,506.000000,-0.042960,-0.113140,0.019417,-0.039316,0.954163,0.300159,-0.042960,-0.113140,0.019417,-0.039316,0.954163,0.300159
0.507000,507.000000,-0.095599,-0.014498,0.010761,-0.039688,0.954532,0.300599,-0.095599,-0.014498,0.010761,-0.039688,0.954532,0.300599
0.508000,508.000000,-0.053917,0.002144,-0.004829,-0.039316,0.953696,0.300615,-0.053917,0.002144,-0.004829,-0.039316,0.953696,0.300615
0.509000,509.000000,-0.083488,-0.073196,0.044639,-0.038390,0.952941,0.300616,-0.083488,-0.073196,0.044639,-0.038390,0.952941,0.300616
0.510000,510.000000,-0.057118,-0.091810,0.089525,-0.038353,0.952572,0.300249,-0.057118,-0.091810,0.089525,-0.038353,0.952572,0.300249
0.511000,511.000000,0.009339,-0.057038,0.080116,-0.038346,0.951927,0.300070,0.009339,-0.057038,0.080116,-0.038346,0.951927,0.300070
0.512000,512.000000,0.038660,-0.003118,0.004946,-0.038625,0.951679,0.299473,0.038660,-0.003118,0.004946,-0.038625,0.951679,0.299473
0.513000,513.000000,-0.028144,0.009817,-0.026450,-0.039343,0.950971,0.299059,-0.028144,0.009817,-0.026450,-0.039343,0.950971,0.299059
0.514000,514.000000,-0.104918,0.000105,0.005708,-0.039424,0.950338,0.299053,-0.104918,0.000105,0.005708,-0.039424,0.950338,0.299053
0.515000,515.000000,-0.170281,-0.054957,0.007305,-0.039534,0.950462,0.298957,-0.170281,-0.054957,0.007305,-0.039534,0.950462,0.298957
0.516000,516.000000,-0.179296,-0.041273,-0.025481,-0.039002,0.951144,0.299206,-0.179296,-0.041273,-0.025481,-0.039002,0.951144,0.299206
0.517000,517.000000,-0.221417,-0.116737,-0.019580,-0.038874,0.951305,0.300097,-0.221417,-0.116737,-0.019580,-0.038874,0.951305,0.300097
0.518000,518.000000,-0.297597,-0.128581,0.021949,-0.038750,0.951894,0.300863,-0.297597,-0.128581,0.021949,-0.038750,0.951894,0.300863
0.519000,519.000000,-0.237171,-0.138562,0.064559,-0.038622,0.952131,0.301049,-0.237171,-0.138562,0.064559,-0.038622,0.952131,0.301049
0.520000,520.000000,-0.209293,-0.127091,0.048513,-0.038778,0.952376,0.300909,-0.209293,-0.127091,0.048513,-0.038778,0.952376,0.300909
0.521000,521.000000,-0.068566,-0.031927,0.043714,-0.039368,0.952994,0.301060,-0.068566,-0.031927,0.043714,-0.039368,0.952994,0.301060
0.522000,522.000000,0.051934,0.011007,0.041736,-0.039412,0.953789,0.301374,0.051934,0.011007,0.041736,-0.039412,0.953789,0.301374
0.523000,523.000000,0.041441,-0.005142,0.041709,-0.039330,0.953329,0.301545,0.041441,-0.005142,0.041709,-0.039330,0.953329,0.301545
0.524000,524.000000,-0.166615,-0.049497,0.010051,-0.039315,0.953677,0.301400,-0.166615,-0.049497,0.010051,-0.039315,0.953677,0.301400
0.525000,525.000000,-0.264213,-0.099668,0.042306,-0.039314,0.954966,0.300898,-0.264213,-0.099668,0.042306,-0.039314,0.954966,0.300898
0.526000,526.000000,-0.188542,-0.058501,0.055831,-0.038843,0.956020,0.300955,-0.188542,-0.058501,0.055831,-0.038843,0.956020,0.300955
0.527000,527.000000,-0.070350,-0.008687,0.025251,-0.038822,0.955444,0.300970,-0.070350,-0.008687,0.025251,-0.038822,0.955444,0.300970
0.528000,528.000000,-0.022224,0.003366,0.011100,-0.038538,0.955025,0.300972,-0.022224,0.003366,0.011100,-0.038538,0.955025,0.300972
0.529000,529.000000,0.023560,0.018754,0.007800,-0.038283,0.954368,0.301350,0.023560,0.018754,0.007800,-0.038283,0.954368,0.301350
0.530000,530.000000,0.062430,-0.077590,-0.012377,-0.038692,0.954394,0.301353,0.062430,-0.077590,-0.012377,-0.038692,0.954394,0.301353
0.531000,531.000000,-0.008052,-0.060765,-0.023538,-0.039163,0.954684,0.300983,-0.008052,-0.060765,-0.023538,-0.039163,0.954684,0.300983
0.532000,532.000000,-0.052265,-0.075947,0.020092,-0.039277,0.954933,0.300427,-0.052265,-0.075947,0.020092,-0.039277,0.954933,0.300427
0.533000,533.000000,-0.069591,-0.006234,0.063371,-0.039209,0.954996,0.300568,-0.069591,-0.006234,0.063371,-0.039209,0.954996,0.300568
0.534000,534.000000,-0.035019,-0.029239,0.040171,-0.039099,0.955105,0.300695,-0.035019,-0.029239,0.040171,-0.039099,0.955105,0.300695
0.535000,535.000000,0.105283,-0.041423,0.013740,-0.039168,0.954848,0.300360,0.105283,-0.041423,0.013740,-0.039168,0.954848,0.300360
0.536000,536.000000,0.052827,-0.057222,0.061341,-0.039556,0.954415,0.300374,0.052827,-0.057222,0.061341,-0.039556,0.954415,0.300374
0.537000,537.000000,-0.032608,-0.107666,0.079861,-0.039555,0.954408,0.300654,-0.032608,-0.107666,0.079861,-0.039555,0.954408,0.300654
0.538000,538.000000,-0.146674,-0.152768,0.065308,-0.039839,0.954129,0.300355,-0.146674,-0.152768,0.065308,-0.039839,0.954129,0.300355
0.539000,539.000000,-0.087466,-0.138184,0.028100,-0.039438,0.954618,0.300184,-0.087466,-0.138184,0.028100,-0.039438,0.954618,0.300184
0.540000,540.000000,-0.005922,-0.154864,0.018826,-0.038789,0.954177,0.299675,-0.005922,-0.154864,0.018826,-0.038789,0.954177,0.299675
0.541000,541.000000,0.146867,-0.132188,0.055606,-0.038736,0.952586,0.298632,0.146867,-0.132188,0.055606,-0.038736,0.952586,0.298632
0.542000,542.000000,0.276607,-0.066126,0.063919,-0.039191,0.951099,0.298109,0.276607,-0.066126,0.063919,-0.039191,0.951099,0.298109
0.543000,543.000000,0.181929,0.036369,0.053420,-0.039586,0.950281,0.297433,0.181929,0.036369,0.053420,-0.039586,0.950281,0.297433
0.544000,544.000000,0.072144,0.053788,0.038245,-0.039314,0.949804,0.296434,0.072144,0.053788,0.038245,-0.039314,0.949804,0.296434
0.545000,545.000000,-0.027629,0.017770,0.034747,-0.039341,0.948946,0.295827,-0.027629,0.017770,0.034747,-0.039341,0.948946,0.295827
0.546000,546.000000,-0.072416,0.035800,0.007314,-0.039535,0.948180,0.295594,-0.072416,0.035800,0.007314,-0.039535,0.948180,0.295594
0.547000,547.000000,0.029620,0.000889,-0.000177,-0.039489,0.947992,0.295908,0.029620,0.000889,-0.000177,-0.039489,0.947992,0.295908
0.548000,548.000000,0.154071,-0.000853,0.017387,-0.039572,0.948412,0.296442,0.154071,-0.000853,0.017387,-0.039572,0.948412,0.296442
0.549000,549.000000,0.124004,-0.040831,0.009007,-0.039501,0.948049,0.296571,0.124004,-0.040831,0.009007,-0.039501,0.948049,0.296571
0.550000,550.000000,0.003263,-0.042927,0.001369,-0.039575,0.948327,0.296603,0.003263,-0.042927,0.001369,-0.039575,0.948327,0.296603
0.551000,551.000000,0.034525,-0.043864,0.032300,-0.039486,0.948765,0.297630,0.034525,-0.043864,0.032300,-0.039486,0.948765,0.297630
0.552000,552.000000,-0.055979,-0.064614,0.047124,-0.039555,0.949432,0.297969,-0.055979,-0.064614,0.047124,-0.039555,0.949432,0.297969
0.553000,553.000000,-0.058000,-0.056825,0.050042,-0.039479,0.950983,0.298135,-0.058000,-0.056825,0.050042,-0.039479,0.950983,0.298135
0.554000,554.000000,-0.065454,-0.048346,-0.015465,-0.039367,0.952098,0.298357,-0.065454,-0.048346,-0.015465,-0.039367,0.952098,0.298357
0.555000,555.000000,-0.047984,-0.039074,-0.004972,-0.038868,0.953288,0.298866,-0.047984,-0.039074,-0.004972,-0.038868,0.953288,0.298866
0.556000,556.000000,-0.063852,-0.002951,-0.008902,-0.038646,0.953759,0.299545,-0.063852,-0.002951,-0.008902,-0.038646,0.953759,0.299545
0.557000,557.000000,-0.114319,-0.041128,0.043573,-0.038497,0.954336,0.299891,-0.114319,-0.041128,0.043573,-0.038497,0.954336,0.299891
0.558000,558.000000,0.027504,-0.011086,0.081900,-0.038375,0.954474,0.299881,0.027504,-0.011086,0.081900,-0.038375,0.954474,0.299881
0.559000,559.000000,-0.043940,0.015719,0.045539,-0.038537,0.954234,0.299603,-0.043940,0.015719,0.045539,-0.038537,0.954234,0.299603
0.560000,560.000000,-0.014025,0.021525,-0.003295,-0.038571,0.954178,0.300000,-0.014025,0.021525,-0.003295,-0.038571,0.954178,0.300000
0.561000,561.000000,-0.120663,0.004245,0.005580,-0.038760,0.954809,0.300189,-0.120663,0.004245,0.005580,-0.038760,0.954809,0.300189
0.562000,562.000000,-0.113125,-0.026381,0.033939,-0.038994,0.955054,0.300237,-0.113125,-0.026381,0.033939,-0.038994,0.955054,0.300237
0.563000,563.000000,-0.145254,0.012931,0.021007,-0.038961,0.955025,0.300153,-0.145254,0.012931,0.021007,-0.038961,0.955025,0.300153
0.564000,564.000000,-0.199671,0.075065,0.018136,-0.038949,0.954925,0.300503,-0.199671,0.075065,0.018136,-0.038949,0.954925,0.300503
0.565000,565.000000,-0.226033,0.116162,0.023744,-0.039224,0.954438,0.300960,-0.226033,0.116162,0.023744,-0.039224,0.954438,0.300960
0.566000,566.000000,-0.305791,0.086886,0.058718,-0.039478,0.954507,0.300793,-0.305791,0.086886,0.058718,-0.039478,0.954507,0.300793
0.567000,567.000000,-0.246049,0.013395,0.027083,-0.039448,0.954335,0.300661,-0.246049,0.013395,0.027083,-0.039448,0.954335,0.300661
0.568000,568.000000,-0.165159,-0.064484,-0.007396,-0.038970,0.954293,0.301088,-0.165159,-0.064484,-0.007396,-0.038970,0.954293,0.301088
0.569000,569.000000,-0.137960,-0.109264,0.017683,-0.038022,0.954376,0.301000,-0.137960,-0.109264,0.017683,-0.038022,0.954376,0.301000
0.570000,570.000000,-0.097942,-0.053553,0.029936,-0.037795,0.954764,0.300610,-0.097942,-0.053553,0.029936,-0.037795,0.954764,0.300610
0.571000,571.000000,-0.015836,-0.027235,-0.027182,-0.038110,0.954767,0.300427,-0.015836,-0.027235,-0.027182,-0.038110,0.954767,0.300427
0.572000,572.000000,-0.001636,-0.028507,-0.014588,-0.038651,0.954306,0.300480,-0.001636,-0.028507,-0.014588,-0.038651,0.954306,0.300480
0.573000,573.000000,-0.023686,-0.082433,0.015245,-0.038877,0.953642,0.300681,-0.023686,-0.082433,0.015245,-0.038877,0.953642,0.300681
0.574000,574.000000,-0.014856,-0.068738,0.035700,-0.038840,0.953112,0.300452,-0.014856,-0.068738,0.035700,-0.038840,0.953112,0.300452
0.575000,575.000000,-0.032682,-0.051808,0.080346,-0.038736,0.953261,0.300115,-0.032682,-0.051808,0.080346,-0.038736,0.953261,0.300115
0.576000,576.000000,-0.070933,-0.013932,0.058241,-0.038707,0.953576,0.299848,-0.070933,-0.013932,0.058241,-0.038707,0.953576,0.299848
0.577000,577.000000,0.011510,-0.038469,0.005654,-0.038890,0.952913,0.299973,0.011510,-0.038469,0.005654,-0.038890,0.952913,0.299973
0.578000,578.000000,0.084587,-0.044031,0.012326,-0.038941,0.952568,0.300095,0.084587,-0.044031,0.012326,-0.038941,0.952568,0.300095
0.579000,579.000000,0.056891,-0.085124,0.034418,-0.038673,0.953039,0.300121,0.056891,-0.085124,0.034418,-0.038673,0.953039,0.300121
0.580000,580.000000,-0.062973,-0.135244,0.000956,-0.038514,0.953428,0.299757,-0.062973,-0.135244,0.000956,-0.038514,0.953428,0.299757
0.581000,581.000000,-0.039649,-0.120554,-0.007575,-0.038478,0.953428,0.300131,-0.039649,-0.120554,-0.007575,-0.038478,0.953428,0.300131
0.582000,582.000000,-0.034057,-0.143660,-0.002734,-0.038840,0.953429,0.300318,-0.034057,-0.143660,-0.002734,-0.038840,0.953429,0.300318
0.583000,583.000000,-0.026290,-0.082356,0.031233,-0.038829,0.953057,0.300365,-0.026290,-0.082356,0.031233,-0.038829,0.953057,0.300365
0.584000,584.000000,-0.077885,-0.034267,0.013209,-0.038359,0.953243,0.300094,-0.077885,-0.034267,0.013209,-0.038359,0.953243,0.300094
0.585000,585.000000,-0.003813,-0.075922,0.008207,-0.039181,0.952829,0.299943,-0.003813,-0.075922,0.008207,-0.039181,0.952829,0.299943
0.586000,586.000000,-0.132460,-0.098353,0.027858,-0.039569,0.952638,0.299443,-0.132460,-0.098353,0.027858,-0.039569,0.952638,0.299443
0.587000,587.000000,-0.063542,-0.111631,-0.000991,-0.039572,0.952035,0.298954,-0.063542,-0.111631,-0.000991,-0.039572,0.952035,0.298954
0.588000,588.000000,-0.127068,-0.127875,-0.000700,-0.039481,0.951979,0.298742,-0.127068,-0.127875,-0.000700,-0.039481,0.951979,0.298742
0.589000,589.000000,-0.115813,-0.124935,0.012231,-0.039090,0.951873,0.299245,-0.115813,-0.124935,0.012231,-0.039090,0.951873,0.299245
0.590000,590.000000,-0.059744,-0.037988,0.008383,-0.038906,0.951666,0.299179,-0.059744,-0.037988,0.008383,-0.038906,0.951666,0.299179
0.591000,591.000000,0.213340,0.016255,0.005883,-0.039139,0.951895,0.298887,0.213340,0.016255,0.005883,-0.039139,0.951895,0.298887
0.592000,592.000000,0.307023,0.042901,-0.001254,-0.038817,0.952232,0.299182,0.307023,0.042901,-0.001254,-0.038817,0.952232,0.299182
0.593000,593.000000,0.276308,0.015757,0.030717,-0.039010,0.953237,0.299069,0.276308,0.015757,0.030717,-0.039010,0.953237,0.299069
0.594000,594.000000,0.156539,0.028305,0.058976,-0.039618,0.953198,0.298862,0.156539,0.028305,0.058976,-0.039618,0.953198,0.298862
0.595000,595.000000,0.020540,0.051723,0.059596,-0.039213,0.953091,0.299178,0.020540,0.051723,0.059596,-0.039213,0.953091,0.299178
0.596000,596.000000,-0.053460,-0.055294,0.033399,-0.038742,0.953160,0.298882,-0.053460,-0.055294,0.033399,-0.038742,0.953160,0.298882
0.597000,597.000000,-0.044608,-0.034787,0.033356,-0.038720,0.952810,0.298536,-0.044608,-0.034787,0.033356,-0.038720,0.952810,0.298536
0.598000,598.000000,-0.050494,-0.042422,0.026638,-0.038988,0.952912,0.298454,-0.050494,-0.042422,0.026638,-0.038988,0.952912,0.298454
0.599000,599.000000,-0.098603,-0.036889,0.045351,-0.039239,0.952938,0.298897,-0.098603,-0.036889,0.045351,-0.039239,0.952938,0.298897
0.600000,600.000000,0.063256,-0.049219,0.082074,-0.038745,0.952478,0.299554,0.063256,-0.049219,0.082074,-0.038745,0.952478,0.299554
0.601000,601.000000,0.016069,-0.078377,0.071979,-0.038162,0.952547,0.299247,0.016069,-0.078377,0.071979,-0.038162,0.952547,0.299247
0.602000,602.000000,-0.081531,-0.125345,0.010504,-0.038582,0.952747,0.298250,-0.081531,-0.125345,0.010504,-0.038582,0.952747,0.298250
0.603000,603.000000,-0.011041,-0.051409,-0.011803,-0.038966,0.952426,0.298291,-0.011041,-0.051409,-0.011803,-0.038966,0.952426,0.298291
0.604000,604.000000,0.020291,0.059448,0.022323,-0.038780,0.952259,0.298395,0.020291,0.059448,0.022323,-0.038780,0.952259,0.298395
0.605000,605.000000,0.100505,0.039875,0.016889,-0.038921,0.951849,0.298328,0.100505,0.039875,0.016889,-0.038921,0.951849,0.298328
0.606000,606.000000,0.106129,-0.037353,0.035717,-0.039140,0.951472,0.298221,0.106129,-0.037353,0.035717,-0.039140,0.951472,0.298221
0.607000,607.000000,0.060706,0.030332,0.040511,-0.039476,0.950827,0.297828,0.060706,0.030332,0.040511,-0.039476,0.950827,0.297828
0.608000,608.000000,-0.110057,0.066677,0.016022,-0.039745,0.950484,0.297087,-0.110057,0.066677,0.016022,-0.039745,0.950484,0.297087
0.609000,609.000000,-0.131880,0.002169,0.049833,-0.039343,0.949937,0.297370,-0.131880,0.002169,0.049833,-0.039343,0.949937,0.297370
0.610000,610.000000,-0.123763,0.039724,0.064405,-0.039056,0.949895,0.298270,-0.123763,0.039724,0.064405,-0.039056,0.949895,0.298270
0.611000,611.000000,-0.187640,0.035934,0.075261,-0.038886,0.950252,0.299043,-0.187640,0.035934,0.075261,-0.038886,0.950252,0.299043
0.612000,612.000000,-0.130465,-0.045702,0.043983,-0.038939,0.950338,0.299231,-0.130465,-0.045702,0.043983,-0.038939,0.950338,0.299231
0.613000,613.000000,-0.043891,-0.105273,0.002989,-0.038582,0.950547,0.299365,-0.043891,-0.105273,0.002989,-0.038582,0.950547,0.299365
0.614000,614.000000,-0.070270,-0.145514,-0.026257,-0.038961,0.950602,0.298938,-0.070270,-0.145514,-0.026257,-0.038961,0.950602,0.298938
0.615000,615.000000,-0.068803,-0.075928,-0.040256,-0.039241,0.950896,0.299112,-0.068803,-0.075928,-0.040256,-0.039241,0.950896,0.299112
0.616000,616.000000,-0.154751,-0.046057,-0.016787,-0.038938,0.951331,0.299242,-0.154751,-0.046057,-0.016787,-0.038938,0.951331,0.299242
0.617000,617.000000,-0.174267,-0.065291,0.028756,-0.038493,0.951157,0.299178,-0.174267,-0.065291,0.028756,-0.038493,0.951157,0.299178
0.618000,618.000000,-0.207038,-0.083127,-0.000171,-0.038290,0.951399,0.299622,-0.207038,-0.083127,-0.000171,-0.038290,0.951399,0.299622
0.619000,619.000000,-0.182298,-0.094458,-0.013982,-0.038982,0.952291,0.300009,-0.182298,-0.094458,-0.013982,-0.038982,0.952291,0.300009
0.620000,620.000000,-0.148846,-0.010022,0.009145,-0.039242,0.953519,0.299917,-0.148846,-0.010022,0.009145,-0.039242,0.953519,0.299917
0.621000,621.000000,-0.134079,-0.056118,0.001687,-0.038745,0.953906,0.300076,-0.134079,-0.056118,0.001687,-0.038745,0.953906,0.300076
0.622000,622.000000,-0.037190,-0.041075,-0.007258,-0.038896,0.954562,0.301320,-0.037190,-0.041075,-0.007258,-0.038896,0.954562,0.301320
0.623000,623.000000,0.053723,-0.024582,0.009894,-0.039026,0.954627,0.301530,0.053723,-0.024582,0.009894,-0.039026,0.954627,0.301530
0.624000,624.000000,0.024061,-0.007475,0.021235,-0.038965,0.954086,0.301394,0.024061,-0.007475,0.021235,-0.038965,0.954086,0.301394
0.625000,625.000000,0.022777,-0.017552,0.010577,-0.038858,0.954235,0.301174,0.022777,-0.017552,0.010577,-0.038858,0.954235,0.301174
0.626000,626.000000,0.041609,-0.086763,-0.052025,-0.038833,0.954457,0.301030,0.041609,-0.086763,-0.052025,-0.038833,0.954457,0.301030
0.627000,627.000000,-0.047547,-0.089321,-0.046713,-0.038638,0.955159,0.301175,-0.047547,-0.089321,-0.046713,-0.038638,0.955159,0.301175
0.628000,628.000000,-0.102479,-0.070205,-0.058510,-0.038494,0.955236,0.301488,-0.102479,-0.070205,-0.058510,-0.038494,0.955236,0.301488
0.629000,629.000000,-0.129078,-0.038969,-0.015052,-0.038552,0.954880,0.301938,-0.129078,-0.038969,-0.015052,-0.038552,0.954880,0.301938
0.630000,630.000000,-0.136314,0.008938,-0.037905,-0.038657,0.954611,0.301676,-0.136314,0.008938,-0.037905,-0.038657,0.954611,0.301676
0.631000,631.000000,-0.204587,-0.066154,-0.016271,-0.038499,0.954641,0.301424,-0.204587,-0.066154,-0.016271,-0.038499,0.954641,0.301424
0.632000,632.000000,-0.181547,-0.118146,0.041670,-0.038370,0.954557,0.301363,-0.181547,-0.118146,0.041670,-0.038370,0.954557,0.301363
0.633000,633.000000,-0.228824,-0.110050,0.003359,-0.038250,0.953983,0.300887,-0.228824,-0.110050,0.003359,-0.038250,0.953983,0.300887
0.634000,634.000000,-0.207361,-0.073977,-0.045965,-0.038593,0.953936,0.300033,-0.207361,-0.073977,-0.045965,-0.038593,0.953936,0.300033
0.635000,635.000000,-0.115270,-0.084750,0.007972,-0.038585,0.954012,0.299734,-0.115270,-0.084750,0.007972,-0.038585,0.954012,0.299734
0.636000,636.000000,0.000160,-0.100634,0.020340,-0.038771,0.953938,0.299758,0.000160,-0.100634,0.020340,-0.038771,0.953938,0.299758
0.637000,637.000000,0.128177,-0.118734,0.035861,-0.038999,0.953922,0.300135,0.128177,-0.118734,0.035861,-0.038999,0.953922,0.300135
0.638000,638.000000,0.073277,-0.123075,0.046912,-0.039520,0.953363,0.300233,0.073277,-0.123075,0.046912,-0.039520,0.953363,0.300233
0.639000,639.000000,-0.032956,-0.024416,0.023748,-0.039830,0.952583,0.300905,-0.032956,-0.024416,0.023748,-0.039830,0.952583,0.300905
0.640000,640.000000,-0.085112,0.005911,-0.001494,-0.039445,0.952768,0.300598,-0.085112,0.005911,-0.001494,-0.039445,0.952768,0.300598
0.641000,641.000000,0.102226,0.059031,0.004157,-0.038985,0.953177,0.299503,0.102226,0.059031,0.004157,-0.038985,0.953177,0.299503
0.642000,642.000000,0.213286,0.118424,0.004862,-0.039151,0.952534,0.299520,0.213286,0.118424,0.004862,-0.039151,0.952534,0.299520
0.643000,643.000000,0.133002,0.126447,0.005545,-0.039466,0.952564,0.299711,0.133002,0.126447,0.005545,-0.039466,0.952564,0.299711
0.644000,644.000000,0.101111,0.075931,0.032738,-0.039632,0.952755,0.299939,0.101111,0.075931,0.032738,-0.039632,0.952755,0.299939
0.645000,645.000000,0.206141,0.023481,0.012070,-0.039208,0.952803,0.300269,0.206141,0.023481,0.012070,-0.039208,0.952803,0.300269
0.646000,646.000000,0.092024,0.051625,0.048004,-0.038732,0.953181,0.300254,0.092024,0.051625,0.048004,-0.038732,0.953181,0.300254
0.647000,647.000000,0.011163,-0.008569,0.083458,-0.038894,0.953919,0.300252,0.011163,-0.008569,0.083458,-0.038894,0.953919,0.300252
0.648000,648.000000,-0.015175,0.016623,0.065250,-0.039032,0.954282,0.299603,-0.015175,0.016623,0.065250,-0.039032,0.954282,0.299603
0.649000,649.000000,0.045153,-0.010326,0.086795,-0.039065,0.954184,0.299357,0.045153,-0.010326,0.086795,-0.039065,0.954184,0.299357
0.650000,650.000000,0.058804,-0.049557,0.065471,-0.038699,0.953423,0.299481,0.058804,-0.049557,0.065471,-0.038699,0.953423,0.299481
0.651000,651.000000,0.008612,-0.058778,0.047622,-0.038519,0.953058,0.299510,0.008612,-0.058778,0.047622,-0.038519,0.953058,0.299510
0.652000,652.000000,-0.043513,-0.021646,0.063194,-0.038570,0.952783,0.298960,-0.043513,-0.021646,0.063194,-0.038570,0.952783,0.298960
0.653000,653.000000,-0.142473,-0.032538,0.014854,-0.038213,0.952901,0.299101,-0.142473,-0.032538,0.014854,-0.038213,0.952901,0.299101
0.654000,654.000000,-0.099428,-0.028822,0.002959,-0.038221,0.953393,0.299415,-0.099428,-0.028822,0.002959,-0.038221,0.953393,0.299415
0.655000,655.000000,-0.008646,-0.008000,-0.013799,-0.038691,0.953700,0.299217,-0.008646,-0.008000,-0.013799,-0.038691,0.953700,0.299217
0.656000,656.000000,0.107535,-0.036615,0.014873,-0.039268,0.953122,0.299358,0.107535,-0.036615,0.014873,-0.039268,0.953122,0.299358
0.657000,657.000000,0.280704,-0.043795,0.014187,-0.039036,0.952332,0.299205,0.280704,-0.043795,0.014187,-0.039036,0.952332,0.299205
0.658000,658.000000,0.169407,-0.011948,0.034977,-0.038609,0.952418,0.298884,0.169407,-0.011948,0.034977,-0.038609,0.952418,0.298884
0.659000,659.000000,0.022298,0.062501,0.020712,-0.038602,0.952164,0.298531,0.022298,0.062501,0.020712,-0.038602,0.952164,0.298531
0.660000,660.000000,-0.107078,0.007497,-0.002270,-0.038871,0.951641,0.299006,-0.107078,0.007497,-0.002270,-0.038871,0.951641,0.299006
0.661000,661.000000,-0.137952,0.000294,0.005366,-0.039032,0.951422,0.298660,-0.137952,0.000294,0.005366,-0.039032,0.951422,0.298660
0.662000,662.000000,-0.039091,0.005536,0.026504,-0.039069,0.951379,0.298948,-0.039091,0.005536,0.026504,-0.039069,0.951379,0.298948
0.663000,663.000000,-0.061503,0.001192,0.038598,-0.039355,0.951832,0.298926,-0.061503,0.001192,0.038598,-0.039355,0.951832,0.298926
0.664000,664.000000,-0.027827,0.040916,0.054499,-0.039424,0.951940,0.299106,-0.027827,0.040916,0.054499,-0.039424,0.951940,0.299106
0.665000,665.000000,-0.059441,0.057480,0.058617,-0.038883,0.952332,0.299422,-0.059441,0.057480,0.058617,-0.038883,0.952332,0.299422
0.666000,666.000000,-0.186101,0.074977,0.087171,-0.038566,0.952610,0.299497,-0.186101,0.074977,0.087171,-0.038566,0.952610,0.299497
0.667000,667.000000,-0.122833,0.011170,0.080198,-0.038491,0.952766,0.298869,-0.122833,0.011170,0.080198,-0.038491,0.952766,0.298869
0.668000,668.000000,-0.067179,-0.025080,0.078259,-0.038750,0.953174,0.298808,-0.067179,-0.025080,0.078259,-0.038750,0.953174,0.298808
0.669000,669.000000,-0.066164,-0.034471,0.044691,-0.038812,0.953461,0.299532,-0.066164,-0.034471,0.044691,-0.038812,0.953461,0.299532
0.670000,670.000000,-0.046753,0.009895,0.049524,-0.038735,0.953339,0.299523,-0.046753,0.009895,0.049524,-0.038735,0.953339,0.299523
0.671000,671.000000,-0.109505,0.067813,0.051082,-0.038434,0.953217,0.299799,-0.109505,0.067813,0.051082,-0.038434,0.953217,0.299799
0.672000,672.000000,-0.218439,0.049327,0.038680,-0.038732,0.952728,0.300330,-0.218439,0.049327,0.038680,-0.038732,0.952728,0.300330
0.673000,673.000000,-0.097903,0.051633,0.068166,-0.038989,0.952428,0.300459,-0.097903,0.051633,0.068166,-0.038989,0.952428,0.300459
0.674000,674.000000,-0.060257,0.064302,0.095094,-0.038497,0.951892,0.300580,-0.060257,0.064302,0.095094,-0.038497,0.951892,0.300580
0.675000,675.000000,-0.004734,-0.033053,0.061353,-0.038749,0.951766,0.300614,-0.004734,-0.033053,0.061353,-0.038749,0.951766,0.300614
0.676000,676.000000,-0.064420,-0.030129,0.046983,-0.038531,0.951824,0.300529,-0.064420,-0.030129,0.046983,-0.038531,0.951824,0.300529
0.677000,677.000000,-0.019190,-0.082540,0.043170,-0.038756,0.952302,0.300322,-0.019190,-0.082540,0.043170,-0.038756,0.952302,0.300322
0.678000,678.000000,-0.101683,-0.080940,0.029509,-0.039182,0.952421,0.300552,-0.101683,-0.080940,0.029509,-0.039182,0.952421,0.300552
0.679000,679.000000,-0.069125,-0.080741,0.059056,-0.038539,0.953088,0.300324,-0.069125,-0.080741,0.059056,-0.038539,0.953088,0.300324
0.680000,680.000000,-0.021492,-0.034396,0.052403,-0.038386,0.953617,0.300357,-0.021492,-0.034396,0.052403,-0.038386,0.953617,0.300357
0.681000,681.000000,-0.016979,-0.023197,0.044174,-0.038536,0.953745,0.300182,-0.016979,-0.023197,0.044174,-0.038536,0.953745,0.300182
0.682000,682.000000,-0.115455,-0.046754,0.036450,-0.039128,0.953319,0.300885,-0.115455,-0.046754,0.036450,-0.039128,0.953319,0.300885
0.683000,683.000000,-0.212613,-0.099166,-0.004712,-0.039270,0.953123,0.300964,-0.212613,-0.099166,-0.004712,-0.039270,0.953123,0.300964
0.684000,684.000000,-0.216611,-0.084764,0.038197,-0.039488,0.953078,0.300798,-0.216611,-0.084764,0.038197,-0.039488,0.953078,0.300798
0.685000,685.000000,-0.136904,-0.034435,0.068092,-0.039542,0.952878,0.300573,-0.136904,-0.034435,0.068092,-0.039542,0.952878,0.300573
0.686000,686.000000,0.056360,-0.023547,0.021041,-0.039464,0.953200,0.300981,0.056360,-0.023547,0.021041,-0.039464,0.953200,0.300981
0.687000,687.000000,0.136452,0.005654,0.029459,-0.039071,0.953368,0.301542,0.136452,0.005654,0.029459,-0.039071,0.953368,0.301542
0.688000,688.000000,0.182796,-0.020445,0.031583,-0.038788,0.953318,0.301769,0.182796,-0.020445,0.031583,-0.038788,0.953318,0.301769
0.689000,689.000000,0.114295,-0.013690,0.039328,-0.039280,0.953215,0.300996,0.114295,-0.013690,0.039328,-0.039280,0.953215,0.300996
0.690000,690.000000,0.083843,-0.018701,0.054711,-0.039495,0.953653,0.300065,0.083843,-0.018701,0.054711,-0.039495,0.953653,0.300065
0.691000,691.000000,-0.022627,0.020553,0.058887,-0.039637,0.953947,0.300116,-0.022627,0.020553,0.058887,-0.039637,0.953947,0.300116
0.692000,692.000000,0.051093,0.023007,0.005980,-0.039574,0.953831,0.300226,0.051093,0.023007,0.005980,-0.039574,0.953831,0.300226
0.693000,693.000000,0.079970,0.076915,-0.047136,-0.039653,0.953620,0.300441,0.079970,0.076915,-0.047136,-0.039653,0.953620,0.300441
0.694000,694.000000,0.113103,0.084157,-0.000566,-0.039397,0.953477,0.300118,0.113103,0.084157,-0.000566,-0.039397,0.953477,0.300118
0.695000,695.000000,0.074557,-0.013704,0.004768,-0.039243,0.953624,0.299294,0.074557,-0.013704,0.004768,-0.039243,0.953624,0.299294
0.696000,696.000000,0.032987,-0.084266,-0.000210,-0.039485,0.953474,0.299098,0.032987,-0.084266,-0.000210,-0.039485,0.953474,0.299098
0.697000,697.000000,0.036480,-0.142082,-0.027988,-0.039267,0.953067,0.298776,0.036480,-0.142082,-0.027988,-0.039267,0.953067,0.298776
0.698000,698.000000,-0.108214,-0.076119,-0.040198,-0.039504,0.952414,0.298056,-0.108214,-0.076119,-0.040198,-0.039504,0.952414,0.298056
0.699000,699.000000,-0.057233,-0.100314,-0.057378,-0.039839,0.951520,0.298071,-0.057233,-0.100314,-0.057378,-0.039839,0.951520,0.298071
0.700000,700.000000,0.081061,-0.079205,-0.035969,-0.040015,0.950929,0.298075,0.081061,-0.079205,-0.035969,-0.040015,0.950929,0.298075
0.701000,701.000000,0.134691,-0.120469,0.029029,-0.039778,0.950785,0.297793,0.134691,-0.120469,0.029029,-0.039778,0.950785,0.297793
0.702000,702.000000,0.093586,-0.030431,0.051617,-0.039064,0.950751,0.298275,0.093586,-0.030431,0.051617,-0.039064,0.950751,0.298275
0.703000,703.000000,-0.056534,0.052151,0.051629,-0.038894,0.950562,0.298581,-0.056534,0.052151,0.051629,-0.038894,0.950562,0.298581
0.704000,704.000000,-0.145498,0.031583,0.038693,-0.038949,0.950605,0.298379,-0.145498,0.031583,0.038693,-0.038949,0.950605,0.298379
0.705000,705.000000,-0.239638,-0.033250,0.016104,-0.038962,0.950892,0.298141,-0.239638,-0.033250,0.016104,-0.038962,0.950892,0.298141
0.706000,706.000000,-0.109948,-0.075321,0.009602,-0.038786,0.950962,0.297804,-0.109948,-0.075321,0.009602,-0.038786,0.950962,0.297804
0.707000,707.000000,0.028358,-0.059079,0.040427,-0.038927,0.950977,0.297726,0.028358,-0.059079,0.040427,-0.038927,0.950977,0.297726
0.708000,708.000000,0.015103,-0.081161,0.028551,-0.039513,0.951536,0.297894,0.015103,-0.081161,0.028551,-0.039513,0.951536,0.297894
0.709000,709.000000,0.124505,-0.045975,0.044852,-0.039186,0.951580,0.298209,0.124505,-0.045975,0.044852,-0.039186,0.951580,0.298209
0.710000,710.000000,0.077423,-0.057493,0.049450,-0.038830,0.951406,0.297913,0.077423,-0.057493,0.049450,-0.038830,0.951406,0.297913
0.711000,711.000000,-0.014044,0.019064,-0.002176,-0.038650,0.951830,0.297931,-0.014044,0.019064,-0.002176,-0.038650,0.951830,0.297931
0.712000,712.000000,-0.002423,0.016251,-0.014856,-0.038890,0.952394,0.298028,-0.002423,0.016251,-0.014856,-0.038890,0.952394,0.298028
0.713000,713.000000,0.060503,-0.044275,-0.031854,-0.039599,0.952903,0.298424,0.060503,-0.044275,-0.031854,-0.039599,0.952903,0.298424
0.714000,714.000000,-0.050835,-0.117703,0.004400,-0.039766,0.953395,0.298611,-0.050835,-0.117703,0.004400,-0.039766,0.953395,0.298611
0.715000,715.000000,-0.018228,-0.208844,-0.013623,-0.039338,0.952957,0.299302,-0.018228,-0.208844,-0.013623,-0.039338,0.952957,0.299302
0.716000,716.000000,-0.143687,-0.157097,-0.023585,-0.039511,0.952662,0.299474,-0.143687,-0.157097,-0.023585,-0.039511,0.952662,0.299474
0.717000,717.000000,-0.100974,-0.104141,0.000322,-0.039175,0.953053,0.299789,-0.100974,-0.104141,0.000322,-0.039175,0.953053,0.299789
0.718000,718.000000,-0.143068,-0.091821,-0.006817,-0.038628,0.953707,0.299860,-0.143068,-0.091821,-0.006817,-0.038628,0.953707,0.299860
0.719000,719.000000,-0.092033,-0.056729,-0.028838,-0.038490,0.954330,0.300152,-0.092033,-0.056729,-0.028838,-0.038490,0.954330,0.300152
0.720000,720.000000,0.040820,-0.061817,-0.034908,-0.038553,0.954576,0.300592,0.040820,-0.061817,-0.034908,-0.038553,0.954576,0.300592
0.721000,721.000000,0.073359,-0.076008,0.036750,-0.038852,0.954634,0.300793,0.073359,-0.076008,0.036750,-0.038852,0.954634,0.300793
0.722000,722.000000,0.087130,-0.026541,0.053876,-0.039296,0.954831,0.299918,0.087130,-0.026541,0.053876,-0.039296,0.954831,0.299918
0.723000,723.000000,-0.023213,0.051941,0.025534,-0.039493,0.954599,0.299524,-0.023213,0.051941,0.025534,-0.039493,0.954599,0.299524
0.724000,724.000000,-0.110613,0.103919,-0.007813,-0.039544,0.954271,0.299799,-0.110613,0.103919,-0.007813,-0.039544,0.954271,0.299799
0.725000,725.000000,-0.065240,0.109911,-0.003348,-0.039562,0.953725,0.299866,-0.065240,0.109911,-0.003348,-0.039562,0.953725,0.299866
0.726000,726.000000,-0.100378,0.118026,0.011422,-0.039847,0.953407,0.299885,-0.100378,0.118026,0.011422,-0.039847,0.953407,0.299885
0.727000,727.000000,-0.162349,0.000291,-0.004611,-0.039354,0.953699,0.299886,-0.162349,0.000291,-0.004611,-0.039354,0.953699,0.299886
0.728000,728.000000,-0.205136,-0.147539,-0.028129,-0.038774,0.953858,0.299697,-0.205136,-0.147539,-0.028129,-0.038774,0.953858,0.299697
0.729000,729.000000,-0.115118,-0.143050,-0.001144,-0.039099,0.953621,0.299656,-0.115118,-0.143050,-0.001144,-0.039099,0.953621,0.299656
0.730000,730.000000,-0.026372,-0.068447,0.051578,-0.039083,0.953569,0.299737,-0.026372,-0.068447,0.051578,-0.039083,0.953569,0.299737
0.731000,731.000000,0.008742,-0.003865,0.083832,-0.038893,0.953462,0.299200,0.008742,-0.003865,0.083832,-0.038893,0.953462,0.299200
0.732000,732.000000,0.011035,0.011692,0.091781,-0.038938,0.953255,0.298981,0.011035,0.011692,0.091781,-0.038938,0.953255,0.298981
0.733000,733.000000,0.005426,0.061658,0.034112,-0.038490,0.952648,0.299387,0.005426,0.061658,0.034112,-0.038490,0.952648,0.299387
0.734000,734.000000,-0.135834,0.007488,0.034339,-0.038478,0.952221,0.299303,-0.135834,0.007488,0.034339,-0.038478,0.952221,0.299303
0.735000,735.000000,-0.143988,-0.152762,0.027599,-0.038376,0.952485,0.300118,-0.143988,-0.152762,0.027599,-0.038376,0.952485,0.300118
0.736000,736.000000,-0.239008,-0.117329,0.026435,-0.038168,0.952644,0.299943,-0.239008,-0.117329,0.026435,-0.038168,0.952644,0.299943
0.737000,737.000000,-0.175866,-0.062144,0.038950,-0.038866,0.952316,0.299442,-0.175866,-0.062144,0.038950,-0.038866,0.952316,0.299442
0.738000,738.000000,-0.020571,-0.003112,0.034535,-0.039498,0.952606,0.299044,-0.020571,-0.003112,0.034535,-0.039498,0.952606,0.299044
0.739000,739.000000,0.010281,0.043471,-0.006328,-0.039274,0.953229,0.299219,0.010281,0.043471,-0.006328,-0.039274,0.953229,0.299219
0.740000,740.000000,0.025277,0.035206,0.003692,-0.039031,0.953284,0.299540,0.025277,0.035206,0.003692,-0.039031,0.953284,0.299540
0.741000,741.000000,-0.023749,-0.033188,0.039948,-0.038873,0.952651,0.299527,-0.023749,-0.033188,0.039948,-0.038873,0.952651,0.299527
0.742000,742.000000,-0.042255,-0.003579,0.028737,-0.038931,0.951945,0.299433,-0.042255,-0.003579,0.028737,-0.038931,0.951945,0.299433
0.743000,743.000000,-0.113699,-0.075630,-0.000249,-0.038388,0.951684,0.299592,-0.113699,-0.075630,-0.000249,-0.038388,0.951684,0.299592
0.744000,744.000000,-0.031043,-0.053704,-0.001739,-0.038728,0.951709,0.299632,-0.031043,-0.053704,-0.001739,-0.038728,0.951709,0.299632
0.745000,745.000000,-0.044865,-0.073906,0.011347,-0.038901,0.951528,0.299735,-0.044865,-0.073906,0.011347,-0.038901,0.951528,0.299735
0.746000,746.000000,-0.129168,-0.090583,0.061577,-0.038661,0.951854,0.300131,-0.129168,-0.090583,0.061577,-0.038661,0.951854,0.300131
0.747000,747.000000,-0.149604,-0.108812,0.060432,-0.039068,0.952303,0.300228,-0.149604,-0.108812,0.060432,-0.039068,0.952303,0.300228
0.748000,748.000000,-0.167796,-0.146974,0.027226,-0.039444,0.951951,0.300069,-0.167796,-0.146974,0.027226,-0.039444,0.951951,0.300069
0.749000,749.000000,-0.159357,-0.202841,-0.000706,-0.038704,0.951681,0.300393,-0.159357,-0.202841,-0.000706,-0.038704,0.951681,0.300393
0.750000,750.000000,-0.130356,-0.156194,-0.013997,-0.037967,0.952172,0.300654,-0.130356,-0.156194,-0.013997,-0.037967,0.952172,0.300654
0.751000,751.000000,-0.036253,-0.105452,-0.024339,-0.038338,0.953216,0.300718,-0.036253,-0.105452,-0.024339,-0.038338,0.953216,0.300718
0.752000,752.000000,0.099096,-0.106592,-0.027535,-0.038798,0.953466,0.300645,0.099096,-0.106592,-0.027535,-0.038798,0.953466,0.300645
0.753000,753.000000,0.152265,-0.053318,-0.008432,-0.039377,0.953717,0.300163,0.152265,-0.053318,-0.008432,-0.039377,0.953717,0.300163
0.754000,754.000000,0.158102,-0.007650,-0.030512,-0.039801,0.954151,0.299399,0.158102,-0.007650,-0.030512,-0.039801,0.954151,0.299399
0.755000,755.000000,0.060339,0.076187,-0.041822,-0.039625,0.954161,0.299118,0.060339,0.076187,-0.041822,-0.039625,0.954161,0.299118
0.756000,756.000000,-0.043050,0.096840,0.002184,-0.039579,0.953700,0.299422,-0.043050,0.096840,0.002184,-0.039579,0.953700,0.299422
0.757000,757.000000,-0.096224,0.049004,-0.020004,-0.039197,0.953126,0.300145,-0.096224,0.049004,-0.020004,-0.039197,0.953126,0.300145
0.758000,758.000000,0.022664,-0.021694,-0.072641,-0.039198,0.953077,0.300415,0.022664,-0.021694,-0.072641,-0.039198,0.953077,0.300415
0.759000,759.000000,0.145464,0.020749,-0.026396,-0.039759,0.953531,0.299836,0.145464,0.020749,-0.026396,-0.039759,0.953531,0.299836
0.760000,760.000000,0.056441,0.044026,-0.007541,-0.039613,0.953359,0.299696,0.056441,0.044026,-0.007541,-0.039613,0.953359,0.299696
0.761000,761.000000,-0.010766,0.056475,0.023825,-0.039115,0.952942,0.299196,-0.010766,0.056475,0.023825,-0.039115,0.952942,0.299196
0.762000,762.000000,-0.080055,0.026909,0.018577,-0.039095,0.952754,0.298519,-0.080055,0.026909,0.018577,-0.039095,0.952754,0.298519
0.763000,763.000000,-0.030315,0.012354,0.036338,-0.038988,0.952895,0.299002,-0.030315,0.012354,0.036338,-0.038988,0.952895,0.299002
0.764000,764.000000,-0.072471,-0.029913,0.054464,-0.039611,0.952928,0.298940,-0.072471,-0.029913,0.054464,-0.039611,0.952928,0.298940
0.765000,765.000000,-0.030154,-0.027287,0.038541,-0.039585,0.952471,0.298462,-0.030154,-0.027287,0.038541,-0.039585,0.952471,0.298462
0.766000,766.000000,-0.133196,-0.039871,0.055378,-0.038560,0.952087,0.298337,-0.133196,-0.039871,0.055378,-0.038560,0.952087,0.298337
0.767000,767.000000,-0.184128,-0.063265,0.066238,-0.038220,0.951899,0.298214,-0.184128,-0.063265,0.066238,-0.038220,0.951899,0.298214
0.768000,768.000000,-0.129662,-0.048859,0.055117,-0.038693,0.952042,0.298003,-0.129662,-0.048859,0.055117,-0.038693,0.952042,0.298003
0.769000,769.000000,-0.149127,-0.005631,0.059185,-0.039358,0.952073,0.298329,-0.149127,-0.005631,0.059185,-0.039358,0.952073,0.298329
0.770000,770.000000,-0.067111,-0.016825,0.000108,-0.039694,0.952355,0.299427,-0.067111,-0.016825,0.000108,-0.039694,0.952355,0.299427
0.771000,771.000000,-0.006706,-0.019519,0.018818,-0.039777,0.952240,0.300062,-0.006706,-0.019519,0.018818,-0.039777,0.952240,0.300062
0.772000,772.000000,0.080765,-0.012668,0.082649,-0.039522,0.952216,0.300121,0.080765,-0.012668,0.082649,-0.039522,0.952216,0.300121
0.773000,773.000000,0.014881,0.109243,0.078539,-0.039460,0.952488,0.300133,0.014881,0.109243,0.078539,-0.039460,0.952488,0.300133
0.774000,774.000000,-0.088355,0.052295,0.018462,-0.038986,0.952091,0.299762,-0.088355,0.052295,0.018462,-0.038986,0.952091,0.299762
0.775000,775.000000,-0.185793,0.037894,-0.002479,-0.038594,0.951807,0.299396,-0.185793,0.037894,-0.002479,-0.038594,0.951807,0.299396
0.776000,776.000000,-0.263369,-0.018647,0.005910,-0.038498,0.951741,0.299402,-0.263369,-0.018647,0.005910,-0.038498,0.951741,0.299402
0.777000,777.000000,-0.189397,-0.098532,0.000616,-0.038563,0.952375,0.299494,-0.189397,-0.098532,0.000616,-0.038563,0.952375,0.299494
0.778000,778.000000,-0.211339,-0.117303,-0.000241,-0.038672,0.952619,0.299515,-0.211339,-0.117303,-0.000241,-0.038672,0.952619,0.299515
0.779000,779.000000,-0.203846,-0.154256,0.032698,-0.038698,0.952954,0.299609,-0.203846,-0.154256,0.032698,-0.038698,0.952954,0.299609
0.780000,780.000000,-0.162195,-0.136754,0.040616,-0.038612,0.953407,0.299816,-0.162195,-0.136754,0.040616,-0.038612,0.953407,0.299816
0.781000,781.000000,-0.065201,-0.113062,0.015251,-0.039058,0.953796,0.299871,-0.065201,-0.113062,0.015251,-0.039058,0.953796,0.299871
0.782000,782.000000,-0.027612,-0.174188,0.015944,-0.039164,0.953704,0.300070,-0.027612,-0.174188,0.015944,-0.039164,0.953704,0.300070
0.783000,783.000000,0.016490,-0.070390,-0.030593,-0.038998,0.953955,0.300486,0.016490,-0.070390,-0.030593,-0.038998,0.953955,0.300486
0.784000,784.000000,0.014009,-0.051635,-0.021766,-0.039235,0.954295,0.300775,0.014009,-0.051635,-0.021766,-0.039235,0.954295,0.300775
0.785000,785.000000,-0.073534,-0.046862,0.000709,-0.039479,0.954380,0.300661,-0.073534,-0.046862,0.000709,-0.039479,0.954380,0.300661
0.786000,786.000000,-0.155441,-0.044985,0.026226,-0.039446,0.954214,0.300354,-0.155441,-0.044985,0.026226,-0.039446,0.954214,0.300354
0.787000,787.000000,-0.095983,-0.104636,0.071629,-0.038978,0.954170,0.299719,-0.095983,-0.104636,0.071629,-0.038978,0.954170,0.299719
0.788000,788.000000,-0.067572,-0.046982,0.075724,-0.038953,0.954531,0.299843,-0.067572,-0.046982,0.075724,-0.038953,0.954531,0.299843
0.789000,789.000000,-0.040957,0.007213,0.056767,-0.039407,0.954718,0.300618,-0.040957,0.007213,0.056767,-0.039407,0.954718,0.300618
0.790000,790.000000,-0.007967,0.013340,0.051985,-0.039335,0.954299,0.300992,-0.007967,0.013340,0.051985,-0.039335,0.954299,0.300992
0.791000,791.000000,-0.059101,-0.045242,0.025134,-0.039411,0.953735,0.300900,-0.059101,-0.045242,0.025134,-0.039411,0.953735,0.300900
0.792000,792.000000,-0.118346,-0.106219,-0.027787,-0.040077,0.953234,0.301252,-0.118346,-0.106219,-0.027787,-0.040077,0.953234,0.301252
0.793000,793.000000,-0.185556,-0.113327,-0.000575,-0.040054,0.953384,0.300407,-0.185556,-0.113327,-0.000575,-0.040054,0.953384,0.300407
0.794000,794.000000,-0.154955,-0.068815,0.012091,-0.039493,0.953046,0.300202,-0.154955,-0.068815,0.012091,-0.039493,0.953046,0.300202
0.795000,795.000000,-0.095041,-0.011007,0.034891,-0.038895,0.953054,0.299686,-0.095041,-0.011007,0.034891,-0.038895,0.953054,0.299686
0.796000,796.000000,-0.141605,-0.037117,0.040568,-0.038940,0.952501,0.299658,-0.141605,-0.037117,0.040568,-0.038940,0.952501,0.299658
0.797000,797.000000,-0.132714,-0.063794,-0.024146,-0.039506,0.952557,0.299748,-0.132714,-0.063794,-0.024146,-0.039506,0.952557,0.299748
0.798000,798.000000,-0.169713,-0.029820,0.026640,-0.039550,0.952944,0.299766,-0.169713,-0.029820,0.026640,-0.039550,0.952944,0.299766
0.799000,799.000000,-0.165926,-0.081102,0.052232,-0.040023,0.952757,0.299683,-0.165926,-0.081102,0.052232,-0.040023,0.952757,0.299683
0.800000,800.000000,-0.104283,-0.100259,0.057950,-0.040415,0.952429,0.299760,-0.104283,-0.100259,0.057950,-0.040415,0.952429,0.299760
0.801000,801.000000,0.030297,-0.098682,0.005692,-0.040050,0.952723,0.299959,0.030297,-0.098682,0.005692,-0.040050,0.952723,0.299959
0.802000,802.000000,0.069711,-0.005590,-0.006818,-0.039780,0.952704,0.300006,0.069711,-0.005590,-0.006818,-0.039780,0.952704,0.300006
0.803000,803.000000,0.125885,-0.022906,0.023147,-0.039159,0.952329,0.299921,0.125885,-0.022906,0.023147,-0.039159,0.952329,0.299921
0.804000,804.000000,0.059860,0.006439,0.017657,-0.039192,0.951681,0.300087,0.059860,0.006439,0.017657,-0.039192,0.951681,0.300087
0.805000,805.000000,-0.022516,0.033521,0.043259,-0.039575,0.951528,0.299942,-0.022516,0.033521,0.043259,-0.039575,0.951528,0.299942
0.806000,806.000000,-0.009050,-0.000303,0.042529,-0.039482,0.951948,0.299258,-0.009050,-0.000303,0.042529,-0.039482,0.951948,0.299258
0.807000,807.000000,-0.045763,-0.001620,0.042467,-0.038989,0.952513,0.298721,-0.045763,-0.001620,0.042467,-0.038989,0.952513,0.298721
0.808000,808.000000,0.010551,-0.041488,0.022061,-0.038968,0.952560,0.298683,0.010551,-0.041488,0.022061,-0.038968,0.952560,0.298683
0.809000,809.000000,-0.043029,-0.064175,0.004303,-0.039523,0.952295,0.298680,-0.043029,-0.064175,0.004303,-0.039523,0.952295,0.298680
0.810000,810.000000,-0.036661,-0.043033,0.006452,-0.040027,0.951584,0.298959,-0.036661,-0.043033,0.006452,-0.040027,0.951584,0.298959
0.811000,811.000000,-0.061043,-0.150030,0.020679,-0.039594,0.951227,0.298652,-0.061043,-0.150030,0.020679,-0.039594,0.951227,0.298652
0.812000,812.000000,-0.100941,-0.222902,-0.022035,-0.039023,0.951138,0.298481,-0.100941,-0.222902,-0.022035,-0.039023,0.951138,0.298481
0.813000,813.000000,-0.116554,-0.181043,-0.012519,-0.038697,0.951855,0.298438,-0.116554,-0.181043,-0.012519,-0.038697,0.951855,0.298438
0.814000,814.000000,-0.145843,-0.110775,0.056243,-0.038616,0.952027,0.298703,-0.145843,-0.110775,0.056243,-0.038616,0.952027,0.298703
0.815000,815.000000,0.054062,-0.075427,0.051558,-0.038878,0.951886,0.298678,0.054062,-0.075427,0.051558,-0.038878,0.951886,0.298678
0.816000,816.000000,0.141799,-0.046159,0.043687,-0.039315,0.952504,0.298580,0.141799,-0.046159,0.043687,-0.039315,0.952504,0.298580
0.817000,817.000000,0.095834,0.007778,0.055403,-0.039044,0.952655,0.299295,0.095834,0.007778,0.055403,-0.039044,0.952655,0.299295
0.818000,818.000000,-0.128079,-0.011500,0.079455,-0.038978,0.951857,0.299933,-0.128079,-0.011500,0.079455,-0.038978,0.951857,0.299933
0.819000,819.000000,-0.182996,0.036037,0.025557,-0.039240,0.951754,0.299904,-0.182996,0.036037,0.025557,-0.039240,0.951754,0.299904
0.820000,820.000000,-0.169336,0.000888,-0.007568,-0.039485,0.952189,0.299618,-0.169336,0.000888,-0.007568,-0.039485,0.952189,0.299618
0.821000,821.000000,-0.132205,-0.000800,0.017293,-0.039175,0.952942,0.299359,-0.132205,-0.000800,0.017293,-0.039175,0.952942,0.299359
0.822000,822.000000,-0.003703,0.004736,0.009190,-0.039008,0.953310,0.299480,-0.003703,0.004736,0.009190,-0.039008,0.953310,0.299480
0.823000,823.000000,-0.038825,0.053691,0.001049,-0.038684,0.953211,0.299879,-0.038825,0.053691,0.001049,-0.038684,0.953211,0.299879
0.824000,824.000000,-0.034406,-0.000060,0.019323,-0.038787,0.953371,0.299882,-0.034406,-0.000060,0.019323,-0.038787,0.953371,0.299882
0.825000,825.000000,-0.033724,0.006447,0.010522,-0.038905,0.953503,0.299794,-0.033724,0.006447,0.010522,-0.038905,0.953503,0.299794
0.826000,826.000000,-0.046765,0.047475,-0.004898,-0.038845,0.952705,0.300514,-0.046765,0.047475,-0.004898,-0.038845,0.952705,0.300514
0.827000,827.000000,-0.176267,0.024220,0.018525,-0.038839,0.951778,0.300503,-0.176267,0.024220,0.018525,-0.038839,0.951778,0.300503
0.828000,828.000000,-0.194106,-0.020702,0.057356,-0.039487,0.952019,0.300227,-0.194106,-0.020702,0.057356,-0.039487,0.952019,0.300227
0.829000,829.000000,-0.165544,-0.025371,0.053129,-0.039825,0.952447,0.300345,-0.165544,-0.025371,0.053129,-0.039825,0.952447,0.300345
0.830000,830.000000,-0.178683,-0.033233,0.005914,-0.039997,0.952642,0.300468,-0.178683,-0.033233,0.005914,-0.039997,0.952642,0.300468
0.831000,831.000000,-0.142678,-0.035278,-0.019366,-0.039017,0.952498,0.300953,-0.142678,-0.035278,-0.019366,-0.039017,0.952498,0.300953
0.832000,832.000000,-0.092931,-0.075613,0.014389,-0.038502,0.952926,0.301064,-0.092931,-0.075613,0.014389,-0.038502,0.952926,0.301064
0.833000,833.000000,-0.039596,0.014716,0.055298,-0.038746,0.952937,0.301556,-0.039596,0.014716,0.055298,-0.038746,0.952937,0.301556
0.834000,834.000000,-0.073261,-0.037509,0.039115,-0.039080,0.952662,0.301406,-0.073261,-0.037509,0.039115,-0.039080,0.952662,0.301406
0.835000,835.000000,-0.014375,-0.038186,-0.004790,-0.038886,0.953063,0.300442,-0.014375,-0.038186,-0.004790,-0.038886,0.953063,0.300442
0.836000,836.000000,-0.020346,-0.044629,-0.001977,-0.039124,0.952880,0.299656,-0.020346,-0.044629,-0.001977,-0.039124,0.952880,0.299656
0.837000,837.000000,0.003550,-0.079316,-0.001707,-0.039275,0.952739,0.299282,0.003550,-0.079316,-0.001707,-0.039275,0.952739,0.299282
0.838000,838.000000,-0.003846,0.011725,-0.041715,-0.039123,0.952607,0.299559,-0.003846,0.011725,-0.041715,-0.039123,0.952607,0.299559
0.839000,839.000000,-0.019041,0.020777,-0.024780,-0.038619,0.952670,0.299806,-0.019041,0.020777,-0.024780,-0.038619,0.952670,0.299806
0.840000,840.000000,-0.141821,0.049975,0.026468,-0.038681,0.952595,0.300052,-0.141821,0.049975,0.026468,-0.038681,0.952595,0.300052
0.841000,841.000000,-0.171400,-0.049588,0.019155,-0.038977,0.952581,0.299930,-0.171400,-0.049588,0.019155,-0.038977,0.952581,0.299930
0.842000,842.000000,-0.132640,-0.073746,-0.016336,-0.039142,0.952022,0.300091,-0.132640,-0.073746,-0.016336,-0.039142,0.952022,0.300091
0.843000,843.000000,-0.236138,-0.117651,0.022416,-0.039275,0.951981,0.300684,-0.236138,-0.117651,0.022416,-0.039275,0.951981,0.300684
0.844000,844.000000,-0.155339,-0.135278,0.024502,-0.039212,0.952344,0.301009,-0.155339,-0.135278,0.024502,-0.039212,0.952344,0.301009
0.845000,845.000000,-0.069019,-0.060155,0.017992,-0.039197,0.952524,0.301643,-0.069019,-0.060155,0.017992,-0.039197,0.952524,0.301643
0.846000,846.000000,0.018633,0.003932,-0.017220,-0.038824,0.952562,0.301791,0.018633,0.003932,-0.017220,-0.038824,0.952562,0.301791
0.847000,847.000000,0.059912,-0.027012,-0.005826,-0.039012,0.952852,0.301735,0.059912,-0.027012,-0.005826,-0.039012,0.952852,0.301735
0.848000,848.000000,0.070156,0.004642,-0.029573,-0.039240,0.953572,0.301167,0.070156,0.004642,-0.029573,-0.039240,0.953572,0.301167
0.849000,849.000000,-0.106779,-0.027474,0.005696,-0.039206,0.953469,0.300566,-0.106779,-0.027474,0.005696,-0.039206,0.953469,0.300566
0.850000,850.000000,-0.183735,-0.041419,-0.012331,-0.039289,0.953164,0.300979,-0.183735,-0.041419,-0.012331,-0.039289,0.953164,0.300979
0.851000,851.000000,-0.141524,-0.037560,0.062605,-0.039309,0.952901,0.300708,-0.141524,-0.037560,0.062605,-0.039309,0.952901,0.300708
0.852000,852.000000,-0.051912,-0.063006,0.119757,-0.039036,0.952650,0.300086,-0.051912,-0.063006,0.119757,-0.039036,0.952650,0.300086
0.853000,853.000000,0.082395,-0.043422,0.046610,-0.039339,0.952677,0.300310,0.082395,-0.043422,0.046610,-0.039339,0.952677,0.300310
0.854000,854.000000,0.134438,-0.032020,0.008985,-0.039416,0.952874,0.300549,0.134438,-0.032020,0.008985,-0.039416,0.952874,0.300549
0.855000,855.000000,0.247316,-0.015996,-0.000716,-0.039247,0.953198,0.300513,0.247316,-0.015996,-0.000716,-0.039247,0.953198,0.300513
0.856000,856.000000,0.096112,-0.038392,0.031600,-0.038650,0.953655,0.300590,0.096112,-0.038392,0.031600,-0.038650,0.953655,0.300590
0.857000,857.000000,-0.027358,-0.111015,0.046866,-0.038880,0.953488,0.300335,-0.027358,-0.111015,0.046866,-0.038880,0.953488,0.300335
0.858000,858.000000,-0.078434,-0.021854,0.030374,-0.038935,0.952882,0.299904,-0.078434,-0.021854,0.030374,-0.038935,0.952882,0.299904
0.859000,859.000000,-0.064485,0.013675,0.019295,-0.038761,0.952552,0.300170,-0.064485,0.013675,0.019295,-0.038761,0.952552,0.300170
0.860000,860.000000,-0.120962,-0.077337,-0.009365,-0.038535,0.952475,0.300234,-0.120962,-0.077337,-0.009365,-0.038535,0.952475,0.300234
0.861000,861.000000,-0.155025,-0.139071,-0.042528,-0.038114,0.952546,0.299507,-0.155025,-0.139071,-0.042528,-0.038114,0.952546,0.299507
0.862000,862.000000,-0.176628,-0.153203,0.002625,-0.037826,0.952560,0.298865,-0.176628,-0.153203,0.002625,-0.037826,0.952560,0.298865
0.863000,863.000000,-0.167169,-0.083963,0.013648,-0.038221,0.952193,0.298992,-0.167169,-0.083963,0.013648,-0.038221,0.952193,0.298992
0.864000,864.000000,-0.138456,-0.107455,0.022710,-0.038690,0.952202,0.299208,-0.138456,-0.107455,0.022710,-0.038690,0.952202,0.299208
0.865000,865.000000,0.108398,-0.060649,-0.009897,-0.038892,0.952209,0.299541,0.108398,-0.060649,-0.009897,-0.038892,0.952209,0.299541
0.866000,866.000000,0.194257,-0.042756,-0.024620,-0.038942,0.952487,0.299157,0.194257,-0.042756,-0.024620,-0.038942,0.952487,0.299157
0.867000,867.000000,0.141338,0.015501,-0.001026,-0.038585,0.951717,0.298601,0.141338,0.015501,-0.001026,-0.038585,0.951717,0.298601
0.868000,868.000000,0.009255,-0.016996,0.025380,-0.038877,0.951437,0.298380,0.009255,-0.016996,0.025380,-0.038877,0.951437,0.298380
0.869000,869.000000,-0.056171,0.027751,-0.008021,-0.039226,0.951836,0.298698,-0.056171,0.027751,-0.008021,-0.039226,0.951836,0.298698
0.870000,870.000000,-0.125410,-0.014717,-0.009144,-0.039304,0.952023,0.298773,-0.125410,-0.014717,-0.009144,-0.039304,0.952023,0.298773
0.871000,871.000000,-0.035997,0.002031,-0.010407,-0.039414,0.951885,0.298514,-0.035997,0.002031,-0.010407,-0.039414,0.951885,0.298514
0.872000,872.000000,0.058515,0.046688,0.008689,-0.039625,0.952042,0.299008,0.058515,0.046688,0.008689,-0.039625,0.952042,0.299008
0.873000,873.000000,0.134881,-0.015908,0.019921,-0.039583,0.952265,0.299680,0.134881,-0.015908,0.019921,-0.039583,0.952265,0.299680
0.874000,874.000000,0.126550,-0.077001,0.069525,-0.039291,0.952871,0.299746,0.126550,-0.077001,0.069525,-0.039291,0.952871,0.299746
0.875000,875.000000,-0.022101,-0.111115,0.082395,-0.038939,0.952461,0.299856,-0.022101,-0.111115,0.082395,-0.038939,0.952461,0.299856
0.876000,876.000000,-0.045074,-0.100429,-0.007318,-0.039131,0.952267,0.300256,-0.045074,-0.100429,-0.007318,-0.039131,0.952267,0.300256
0.877000,877.000000,-0.062735,-0.058699,-0.022401,-0.038995,0.952403,0.299888,-0.062735,-0.058699,-0.022401,-0.038995,0.952403,0.299888
0.878000,878.000000,0.013083,-0.035345,-0.006850,-0.038585,0.952624,0.300072,0.013083,-0.035345,-0.006850,-0.038585,0.952624,0.300072
0.879000,879.000000,-0.082264,-0.016333,-0.029066,-0.039044,0.952953,0.300304,-0.082264,-0.016333,-0.029066,-0.039044,0.952953,0.300304
0.880000,880.000000,-0.206456,0.002774,-0.020220,-0.039251,0.953126,0.300547,-0.206456,0.002774,-0.020220,-0.039251,0.953126,0.300547
0.881000,881.000000,-0.229556,0.047086,-0.024786,-0.039024,0.952890,0.300420,-0.229556,0.047086,-0.024786,-0.039024,0.952890,0.300420
0.882000,882.000000,-0.208425,-0.001891,0.000575,-0.038969,0.952929,0.300017,-0.208425,-0.001891,0.000575,-0.038969,0.952929,0.300017
0.883000,883.000000,-0.175008,-0.041308,0.066060,-0.039413,0.953127,0.300387,-0.175008,-0.041308,0.066060,-0.039413,0.953127,0.300387
0.884000,884.000000,-0.026238,-0.005533,0.027984,-0.039241,0.953081,0.300750,-0.026238,-0.005533,0.027984,-0.039241,0.953081,0.300750
0.885000,885.000000,0.083307,-0.017158,-0.001322,-0.038932,0.952973,0.300279,0.083307,-0.017158,-0.001322,-0.038932,0.952973,0.300279
0.886000,886.000000,0.043597,-0.066054,-0.001333,-0.038672,0.953225,0.300069,0.043597,-0.066054,-0.001333,-0.038672,0.953225,0.300069
0.887000,887.000000,0.066207,-0.057831,0.011589,-0.038600,0.953844,0.300851,0.066207,-0.057831,0.011589,-0.038600,0.953844,0.300851
0.888000,888.000000,0.005376,0.030828,0.047970,-0.038679,0.954086,0.301136,0.005376,0.030828,0.047970,-0.038679,0.954086,0.301136
0.889000,889.000000,-0.183227,-0.027272,0.037805,-0.039164,0.953870,0.300836,-0.183227,-0.027272,0.037805,-0.039164,0.953870,0.300836
0.890000,890.000000,-0.155280,-0.015426,0.014740,-0.039557,0.953630,0.300491,-0.155280,-0.015426,0.014740,-0.039557,0.953630,0.300491
0.891000,891.000000,-0.168867,-0.091495,0.042610,-0.038630,0.953477,0.300123,-0.168867,-0.091495,0.042610,-0.038630,0.953477,0.300123
0.892000,892.000000,-0.239483,-0.109486,0.003415,-0.038500,0.953624,0.300035,-0.239483,-0.109486,0.003415,-0.038500,0.953624,0.300035
0.893000,893.000000,-0.283266,-0.153747,-0.005721,-0.038748,0.954027,0.300476,-0.283266,-0.153747,-0.005721,-0.038748,0.954027,0.300476
0.894000,894.000000,-0.200365,-0.098389,0.011077,-0.038621,0.954035,0.301044,-0.200365,-0.098389,0.011077,-0.038621,0.954035,0.301044
0.895000,895.000000,-0.079441,-0.118207,0.041291,-0.038864,0.953948,0.301552,-0.079441,-0.118207,0.041291,-0.038864,0.953948,0.301552
0.896000,896.000000,0.003312,-0.076556,0.061723,-0.038828,0.953555,0.301859,0.003312,-0.076556,0.061723,-0.038828,0.953555,0.301859
0.897000,897.000000,0.037008,0.039803,0.093033,-0.038635,0.953923,0.301376,0.037008,0.039803,0.093033,-0.038635,0.953923,0.301376
0.898000,898.000000,-0.047434,0.107885,0.074629,-0.038774,0.954290,0.300338,-0.047434,0.107885,0.074629,-0.038774,0.954290,0.300338
