time_s,time_ms,gyro_x_deg_s,gyro_y_deg_s,gyro_z_deg_s,accel_x_g,accel_y_g,accel_z_g,X_GYRO_LWR_raw,Y_GYRO_LWR_raw,Z_GYRO_LWR_raw,X_ACCL_LWR_raw,Y_ACCL_LWR_raw,Z_ACCL_LWR_raw
0.000000,0.000000,-0.037910,-0.036844,-0.149203,0.065284,-0.949251,-0.307985,-24845,-24146,-97782,3422785,-49768078,-16147266
0.001029,1.029420,0.300189,0.165604,-0.200185,0.062115,-0.949405,-0.307178,196732,108530,-131193,3256638,-49776149,-16104964
0.002010,2.009820,0.108922,-0.187997,-0.052759,0.069205,-0.949398,-0.307683,71383,-123206,-34576,3628355,-49775789,-16131464
0.003039,3.039240,-0.230006,-0.090385,0.046907,0.066223,-0.948605,-0.306031,-150737,-59235,30741,3471970,-49734217,-16044825
0.004020,4.019640,-0.037502,-0.137086,-0.149197,0.064715,-0.948046,-0.309520,-24577,-89841,-97778,3392938,-49704934,-16227783
0.005000,5.000040,-0.085400,0.110655,0.045924,0.064316,-0.947104,-0.307890,-55968,72519,30097,3372025,-49655532,-16142303
0.006029,6.029460,-0.035323,0.008582,0.191716,0.067782,-0.945452,-0.307763,-23149,5624,125643,3553736,-49568925,-16135663
0.007010,7.009860,-0.035129,0.058032,0.240416,0.064709,-0.946502,-0.305149,-23022,38032,157559,3392616,-49623942,-15998619
0.008039,8.039280,0.155566,0.163708,-0.101807,0.067972,-0.948160,-0.308830,101952,107288,-66720,3563673,-49710914,-16191577
0.009020,9.019680,0.013354,-0.041354,0.191396,0.066041,-0.949468,-0.305342,8752,-27102,125433,3462449,-49779446,-16008698
0.010000,10.000080,-0.085614,0.260350,0.094620,0.064998,-0.951096,-0.307469,-56108,170623,62010,3407745,-49864837,-16120218
0.011030,11.029500,-0.180121,-0.241907,0.143999,0.063951,-0.949984,-0.311494,-118044,-158536,94371,3352896,-49806545,-16331266
0.012010,12.009900,-0.230812,0.010529,-0.001801,0.068535,-0.951398,-0.305071,-151265,6900,-1180,3593231,-49880663,-15994522
0.013039,13.039320,-0.135071,0.112482,-0.099861,0.068188,-0.952034,-0.306151,-88520,73716,-65445,3574999,-49913993,-16051124
0.014020,14.019720,0.059825,0.061755,-0.003746,0.067782,-0.948196,-0.307126,39207,40472,-2455,3553717,-49712801,-16102264
0.015000,15.000120,-0.083601,0.057849,0.240739,0.066970,-0.951137,-0.303456,-54789,37912,157771,3511162,-49866989,-15909859
0.016030,16.029540,-0.086607,0.212239,-0.051488,0.065555,-0.948615,-0.306475,-56759,139093,-33743,3436968,-49734746,-16068120
0.017010,17.009940,-0.181738,-0.039821,0.046581,0.064611,-0.949267,-0.310090,-119104,-26097,30527,3387490,-49768918,-16257665
0.018039,18.039360,0.011972,-0.188109,-0.052110,0.066005,-0.950380,-0.307684,7846,-123279,-34151,3460555,-49827268,-16131516
0.019020,19.019760,-0.182515,-0.237627,-0.148178,0.065582,-0.944730,-0.306577,-119613,-155731,-97110,3438378,-49531084,-16073445
0.020049,20.049180,0.059824,0.062012,-0.003661,0.065691,-0.944301,-0.307524,39206,40640,-2399,3444087,-49508548,-16123090
0.021030,21.029580,-0.181755,0.159323,0.144061,0.069933,-0.951274,-0.308031,-119115,104414,94412,3666529,-49874178,-16149701
0.022010,22.009980,0.010767,-0.086525,-0.149438,0.065903,-0.948894,-0.308973,7056,-56705,-97936,3455209,-49749379,-16199095
0.023039,23.039400,-0.375621,-0.140134,-0.000735,0.066211,-0.950843,-0.306231,-246167,-91838,-482,3471388,-49851574,-16055305
0.024020,24.019800,-0.086179,-0.086894,-0.148790,0.064924,-0.951848,-0.308785,-56478,-56947,-97511,3403885,-49904246,-16189251
0.025049,25.049220,0.061440,-0.139816,0.093756,0.061479,-0.948627,-0.306863,40265,-91630,61444,3223285,-49735367,-16088485
0.026030,26.029620,0.011360,-0.037746,-0.052034,0.066126,-0.945166,-0.310025,7445,-24737,-34101,3466882,-49553931,-16254242
0.027010,27.010020,0.156976,0.012257,-0.004306,0.066782,-0.950258,-0.309422,102876,8033,-2822,3501290,-49820865,-16222633
0.028039,28.039440,-0.036928,0.111095,0.045686,0.063205,-0.947968,-0.303792,-24201,72807,29941,3313739,-49700805,-15927453
0.029020,29.019840,-0.132649,-0.190004,0.046350,0.063295,-0.946563,-0.306619,-86933,-124521,30376,3318462,-49627171,-16075662
0.030049,30.049260,-0.280678,-0.036839,-0.196201,0.064590,-0.947141,-0.308122,-183945,-24143,-128582,3386393,-49657457,-16154442
0.031030,31.029660,-0.132289,0.207617,0.289844,0.063544,-0.947262,-0.305164,-86697,136064,189952,3331513,-49663791,-15999376
0.032010,32.010060,-0.278879,-0.089642,-0.001385,0.066824,-0.949697,-0.306087,-182766,-58748,-908,3503526,-49791452,-16047756
0.033039,33.039480,-0.231815,0.062248,-0.099124,0.067620,-0.947249,-0.304503,-151922,40795,-64962,3545251,-49663107,-15964732
0.034020,34.019880,-0.084575,-0.189149,-0.002675,0.066835,-0.950044,-0.304312,-55427,-123961,-1753,3504063,-49809656,-15954698
0.035049,35.049300,0.058823,0.113475,-0.101070,0.064187,-0.946283,-0.308191,38550,74367,-66237,3365253,-49612466,-16158079
0.036030,36.029700,0.158397,-0.239021,0.044411,0.067545,-0.950269,-0.303791,103807,-156645,29105,3541281,-49821451,-15927419
0.037010,37.010100,-0.134470,0.061946,-0.051070,0.064848,-0.945803,-0.307859,-88126,40597,-33469,3399900,-49587293,-16140652
0.038040,38.039520,0.061642,-0.189938,0.093759,0.063906,-0.951343,-0.306482,40398,-124478,61446,3350524,-49877753,-16068476
0.039020,39.019920,-0.183340,0.062431,-0.099448,0.063560,-0.952573,-0.309350,-120154,40915,-65174,3332397,-49942253,-16218849
0.040049,40.049340,0.011731,0.260303,0.142760,0.065066,-0.949912,-0.305662,7688,170592,93559,3411353,-49802765,-16025498
0.041030,41.029740,-0.133681,0.160178,0.095033,0.066919,-0.948288,-0.307762,-87609,104974,62281,3508484,-49717584,-16135584
0.042010,42.010140,-0.135461,0.013835,-0.197176,0.066391,-0.944457,-0.310320,-88776,9067,-129221,3480777,-49516745,-16269724
0.043040,43.039560,0.012354,0.010364,0.094070,0.065727,-0.952335,-0.305060,8096,6792,61650,3445984,-49929793,-15993927
0.044020,44.019960,0.108307,-0.037378,-0.052681,0.067939,-0.950659,-0.304827,70980,-24496,-34525,3561962,-49841918,-15981728
0.045049,45.049380,-0.327370,0.108774,0.096332,0.063288,-0.949035,-0.306773,-214545,71286,63132,3318126,-49756781,-16083762
0.046030,46.029780,-0.083200,0.056891,0.289529,0.069385,-0.951520,-0.309339,-54526,37284,189746,3637795,-49887031,-16218274
0.047010,47.010180,0.012578,-0.239447,-0.003407,0.063961,-0.949417,-0.306102,8243,-156924,-2233,3353422,-49776805,-16048557
0.048040,48.039600,-0.037910,-0.037131,-0.149292,0.064612,-0.951214,-0.305807,-24845,-24334,-97840,3387525,-49871009,-16033105
0.049020,49.020000,0.158748,0.257631,0.336426,0.062336,-0.954069,-0.306339,104037,168841,220480,3268196,-50020699,-16060977
0.050049,50.049420,-0.083006,0.056894,0.289352,0.064706,-0.950441,-0.309830,-54399,37286,189630,3392478,-49830499,-16244008
0.051030,51.029820,-0.179362,0.055856,0.338702,0.064716,-0.950869,-0.308729,-117547,36606,221972,3392957,-49852935,-16186266
0.052010,52.010220,-0.085616,0.161162,-0.002873,0.067400,-0.952406,-0.308733,-56109,105619,-1883,3533694,-49933504,-16186479
0.053040,53.039640,0.011758,-0.137859,-0.100909,0.064289,-0.954250,-0.308820,7706,-90347,-66132,3370610,-50030161,-16191066
0.054020,54.020040,-0.181949,0.010428,-0.002216,0.060382,-0.951941,-0.308299,-119242,6834,-1452,3165750,-49909141,-16163742
0.055049,55.049460,-0.085986,-0.136887,-0.197668,0.065099,-0.946698,-0.306648,-56352,-89710,-129544,3413064,-49634225,-16077191
0.056030,56.029860,-0.278508,0.108961,0.095831,0.062460,-0.948694,-0.307447,-182523,71409,62804,3274693,-49738862,-16119052
0.057010,57.010260,-0.037326,0.012321,-0.100594,0.065004,-0.951488,-0.307668,-24462,8075,-65925,3408056,-49885375,-16130645
0.058040,58.039680,-0.036101,-0.288409,-0.100577,0.065030,-0.950745,-0.308606,-23659,-189012,-65914,3409443,-49846430,-16179836
0.059020,59.020080,-0.132874,-0.040179,0.046165,0.065774,-0.947595,-0.308080,-87080,-26332,30255,3448455,-49681272,-16152288
0.060049,60.049500,-0.035934,0.059763,0.094215,0.063414,-0.949900,-0.308084,-23550,39166,61745,3324732,-49802119,-16152465
0.061030,61.029900,-0.035341,0.108542,0.191618,0.063683,-0.949266,-0.307312,-23161,71134,125579,3338807,-49768894,-16112025
0.062010,62.010300,-0.180743,-0.091156,0.095195,0.067155,-0.949318,-0.312232,-118452,-59740,62387,3520834,-49771624,-16369939
0.063040,63.039720,0.011972,-0.287555,-0.149605,0.064127,-0.950440,-0.307799,7846,-188452,-98045,3362110,-49830429,-16137532
0.064020,64.020120,-0.182135,-0.138596,-0.099614,0.066069,-0.946537,-0.309114,-119364,-90830,-65283,3463919,-49625779,-16206450
0.065050,65.049540,-0.085002,0.010796,-0.002864,0.066536,-0.949476,-0.309786,-55707,7075,-1877,3488417,-49779898,-16241702
0.066030,66.029940,0.063425,-0.143039,0.288393,0.067794,-0.946633,-0.309103,41566,-93742,189001,3554370,-49630838,-16205907
0.067010,67.010340,0.012743,0.009824,0.093895,0.066008,-0.947951,-0.309411,8351,6438,61535,3460732,-49699935,-16222064
0.068040,68.039760,-0.035341,0.108542,0.191618,0.068319,-0.950786,-0.309122,-23161,71134,125579,3581868,-49848584,-16206921
0.069020,69.020160,-0.132901,0.258540,0.192258,0.068446,-0.948986,-0.311082,-87098,169437,125998,3588520,-49754201,-16309651
0.070050,70.049580,0.010524,0.262444,-0.052229,0.066940,-0.946318,-0.305522,6897,171995,-34229,3509569,-49614304,-16018175
0.071030,71.029980,0.203447,0.015924,-0.297026,0.064590,-0.949487,-0.305861,133331,10436,-194659,3386358,-49780483,-16035943
0.072010,72.010380,-0.135286,0.162988,-0.148659,0.065975,-0.952994,-0.303411,-88661,106816,-97425,3458995,-49964348,-15907472
0.073040,73.039800,0.108891,0.011819,-0.004160,0.062850,-0.948611,-0.307126,71363,7746,-2726,3295136,-49734518,-16102254
0.074020,74.020200,-0.035918,-0.139098,-0.003180,0.066663,-0.950181,-0.309496,-23539,-91159,-2084,3495069,-49816826,-16226514
0.075050,75.049620,-0.227408,-0.243433,0.241724,0.064966,-0.948664,-0.307271,-149034,-159536,158416,3406072,-49737295,-16109833
0.076030,76.030020,0.157961,0.060783,0.093094,0.064565,-0.948320,-0.308730,103521,39835,61010,3385050,-49719288,-16186328
0.077010,77.010420,0.208440,-0.041959,0.287589,0.064794,-0.951504,-0.311264,136603,-27498,188474,3397077,-49886229,-16319203
0.078040,78.039840,-0.181744,0.059492,0.095363,0.064065,-0.949111,-0.308821,-119108,38989,62497,3358872,-49760775,-16191140
0.079020,79.020240,-0.132074,0.057664,0.241150,0.065625,-0.952440,-0.312617,-86556,37791,158040,3440651,-49935290,-16390127
0.080050,80.049660,-0.086003,0.161446,-0.002696,0.066209,-0.948738,-0.311175,-56363,105805,-1767,3471283,-49741220,-16314517
0.081030,81.030060,-0.085400,0.110652,0.046010,0.065742,-0.948025,-0.307410,-55968,72517,30153,3446778,-49703836,-16117134
0.082010,82.010460,0.010573,-0.136234,-0.198138,0.067404,-0.949022,-0.306503,6929,-89282,-129852,3533889,-49756102,-16069603
0.083040,83.039880,0.059834,-0.037817,-0.052357,0.065294,-0.949480,-0.306485,39213,-24784,-34313,3423279,-49780088,-16068631
0.084020,84.020280,-0.230812,0.010527,-0.001715,0.069288,-0.949552,-0.307566,-151265,6899,-1124,3632671,-49783875,-16125327
0.085050,85.049700,-0.233011,0.064001,-0.245233,0.064818,-0.950486,-0.312436,-152706,41944,-160716,3398317,-49832857,-16380633
0.086030,86.030100,-0.134868,0.062358,-0.099773,0.066641,-0.950879,-0.307564,-88387,40867,-65387,3493900,-49853469,-16125208
0.087011,87.010500,0.012772,-0.189709,0.045380,0.067691,-0.947256,-0.307425,8370,-124328,29740,3548935,-49663508,-16117926
0.088040,88.039920,-0.133865,0.010896,-0.002364,0.066003,-0.950660,-0.309741,-87730,7141,-1549,3460476,-49841946,-16239325
0.089020,89.020320,0.011778,-0.237819,-0.100725,0.064966,-0.948505,-0.306908,7719,-155857,-66011,3406068,-49728968,-16090815
0.090050,90.049740,-0.132260,-0.091359,0.143750,0.066785,-0.950294,-0.308820,-86678,-59873,94208,3501465,-49822769,-16191070
0.091030,91.030140,-0.327147,-0.140205,-0.001059,0.066308,-0.949949,-0.309609,-214399,-91885,-694,3476446,-49804695,-16232450
0.092011,92.010540,0.011555,0.011449,-0.003334,0.063540,-0.947345,-0.306863,7573,7503,-2185,3331329,-49668156,-16088484
0.093040,93.039960,-0.182133,-0.039409,-0.002036,0.069658,-0.948018,-0.307748,-119363,-25827,-1334,3652093,-49703461,-16134867
0.094020,94.020360,-0.037744,0.311324,0.045676,0.065140,-0.950990,-0.311580,-24736,204029,29934,3415202,-49859282,-16335745
0.095050,95.049780,0.013152,0.008766,0.191476,0.065992,-0.949717,-0.309499,8619,5745,125486,3459889,-49792517,-16226638
0.096030,96.030180,0.012558,-0.040013,0.094073,0.069063,-0.950220,-0.307151,8230,-26223,61652,3620874,-49818920,-16103576
0.097011,97.010580,0.011546,0.111020,0.045363,0.066852,-0.946925,-0.310955,7567,72758,29729,3504993,-49646124,-16303007
0.098040,98.040000,0.110713,-0.141231,0.190839,0.066142,-0.949524,-0.311037,72557,-92557,125068,3467732,-49782381,-16307313
0.099020,99.020400,-0.231804,-0.037581,-0.147821,0.061977,-0.948235,-0.309425,-151915,-24629,-96876,3249379,-49714833,-16222793
0.100050,100.049820,-0.085800,0.111324,-0.002692,0.064651,-0.952128,-0.309975,-56230,72957,-1764,3389585,-49918943,-16251642
0.101030,101.030220,0.203844,0.114697,-0.150745,0.068839,-0.948025,-0.306800,133591,75168,-98792,3609153,-49703788,-16085149
0.102011,102.010620,-0.036111,-0.089392,0.045697,0.066580,-0.952453,-0.308580,-23666,-58584,29948,3490693,-49935977,-16178499
0.103040,103.040040,-0.037708,-0.086710,-0.149113,0.066904,-0.949973,-0.307237,-24712,-56826,-97723,3507686,-49805937,-16108061
0.104020,104.020440,0.013170,-0.190123,0.094083,0.065255,-0.946974,-0.307758,8631,-124599,61658,3421256,-49648720,-16135398
0.105050,105.049860,0.057996,0.413535,-0.052383,0.066406,-0.951319,-0.308605,38008,271014,-34330,3481611,-49876497,-16179766
0.106030,106.030260,0.109541,-0.139633,0.093434,0.063668,-0.948685,-0.308783,71789,-91510,61233,3338034,-49738390,-16189109
0.107011,107.010660,0.107927,0.062195,-0.003983,0.067563,-0.946830,-0.308413,70731,40760,-2610,3542244,-49641178,-16169717
0.108040,108.040080,0.156419,-0.136766,-0.101700,0.067560,-0.948344,-0.303451,102511,-89631,-66650,3542064,-49720557,-15909576
0.109020,109.020480,0.011981,0.010364,0.094073,0.070092,-0.948208,-0.307348,7852,6792,61652,3674837,-49713428,-16113871
0.110050,110.049900,-0.280281,0.260538,0.047299,0.068690,-0.951398,-0.305347,-183685,170746,30998,3601356,-49880630,-16008964
0.111030,111.030300,0.009569,0.213533,-0.100749,0.069704,-0.948845,-0.308665,6271,139941,-66027,3654510,-49746822,-16182928
0.112011,112.010700,0.107927,0.062195,-0.003983,0.068913,-0.948506,-0.309773,70731,40760,-2610,3613005,-49729006,-16241017
0.113040,113.040120,-0.135423,-0.086409,-0.197166,0.063610,-0.947273,-0.308881,-88751,-56629,-129215,3334993,-49664372,-16194275
0.114021,114.020520,0.059454,0.062010,-0.003659,0.066533,-0.948723,-0.307459,38964,40639,-2398,3488238,-49740425,-16119684
0.115050,115.049940,-0.037085,-0.038602,-0.003004,0.065330,-0.951708,-0.303832,-24304,-25298,-1969,3425160,-49896932,-15929527
0.116030,116.030340,0.012390,-0.089879,0.094080,0.068752,-0.947199,-0.305602,8120,-58903,61656,3604591,-49660493,-16022339
0.117011,117.010740,-0.085159,-0.039455,0.046021,0.065929,-0.950218,-0.306377,-55810,-25857,30160,3456576,-49818809,-16062973
0.118040,118.040160,-0.135277,0.460907,0.095018,0.068999,-0.948257,-0.306248,-88655,302060,62271,3617535,-49715998,-16056232
0.119021,119.020560,-0.184102,-0.036470,-0.196846,0.066256,-0.948929,-0.309362,-120653,-23901,-129005,3473698,-49751204,-16219480
0.120001,120.000960,-0.085957,-0.038115,-0.051384,0.066254,-0.948055,-0.306383,-56333,-24979,-33675,3473622,-49705410,-16063286
0.120981,120.981360,-0.038106,0.212007,-0.003020,0.065869,-0.949844,-0.311672,-24973,138941,-1979,3453415,-49799159,-16340597
0.122011,122.010780,0.059657,0.011888,-0.003656,0.064661,-0.949254,-0.307004,39097,7791,-2396,3390118,-49768268,-16095874
0.122991,122.991180,0.156808,-0.037865,-0.004300,0.067147,-0.950439,-0.306570,102766,-24815,-2818,3520418,-49830370,-16073079
0.123972,123.971580,0.059843,0.160913,0.093741,0.067455,-0.947419,-0.308183,39219,105456,61434,3536563,-49672032,-16157651
0.125001,125.001000,-0.232964,-0.135558,-0.293921,0.065765,-0.949870,-0.307430,-152675,-88839,-192624,3447987,-49800546,-16118185
0.125981,125.981400,0.012799,-0.190123,0.094084,0.061140,-0.947266,-0.309597,8388,-124599,61659,3205497,-49663998,-16231792
0.127011,127.010820,0.013986,-0.092561,0.288892,0.067005,-0.949114,-0.308634,9166,-60661,189328,3512976,-49760885,-16181336
0.127991,127.991220,-0.183128,0.210783,0.046654,0.064248,-0.947492,-0.306336,-120015,138139,30575,3368436,-49675868,-16060805
0.128972,128.971620,-0.036880,-0.088722,-0.003001,0.067792,-0.945999,-0.306962,-24170,-58145,-1967,3554238,-49597571,-16093659
0.130001,130.001040,0.206479,-0.039693,0.141484,0.065780,-0.947786,-0.306132,135318,-26013,92723,3448786,-49691304,-16050113
0.130981,130.981440,0.304420,0.008784,0.286945,0.067726,-0.950201,-0.307933,199505,5757,188052,3550795,-49817921,-16144579
0.132011,132.010860,0.010161,0.262315,-0.003522,0.065940,-0.948259,-0.307247,6659,171911,-2308,3457140,-49716084,-16108599
0.132991,132.991260,-0.133032,-0.090431,0.094878,0.067277,-0.948674,-0.307290,-87184,-59265,62179,3527260,-49737861,-16110857
0.133972,133.971660,0.206256,-0.187370,-0.053499,0.065746,-0.945357,-0.307015,135172,-122795,-35061,3446972,-49563922,-16096434
0.135001,135.001080,-0.132477,-0.040306,0.094868,0.065254,-0.946857,-0.307950,-86820,-26415,62173,3421163,-49642565,-16145451
0.135981,135.981480,-0.182156,0.061095,-0.002220,0.065762,-0.946494,-0.307150,-119378,40039,-1455,3447816,-49623534,-16103518
0.137011,137.010900,-0.279289,-0.088297,-0.098970,0.070578,-0.949380,-0.307713,-183035,-57866,-64861,3700308,-49774833,-16133029
0.137991,137.991300,0.058812,0.114149,-0.149951,0.065677,-0.951710,-0.305921,38543,74809,-98272,3443383,-49897007,-16039086
0.138972,138.971700,-0.084206,0.009999,0.094540,0.066020,-0.950522,-0.304082,-55185,6553,61958,3461366,-49834747,-15942665
0.140001,140.001120,0.301384,0.064948,-0.151567,0.063584,-0.950441,-0.306117,197515,42564,-99331,3333609,-49830496,-16049350
0.140982,140.981520,0.010745,0.013722,-0.149622,0.064635,-0.951151,-0.311032,7042,8993,-98056,3388730,-49867705,-16307020
0.142011,142.010940,0.012155,-0.137985,-0.052206,0.066632,-0.949098,-0.302880,7966,-90430,-34214,3493459,-49760081,-15879628
0.142991,142.991340,-0.133868,-0.087744,-0.099940,0.065534,-0.947245,-0.307884,-87732,-57504,-65497,3435865,-49662919,-16141972
0.143972,143.971740,0.061020,-0.038899,0.044870,0.066728,-0.948802,-0.308294,39990,-25493,29406,3498470,-49744533,-16163469
0.145001,145.001160,0.111304,-0.191092,0.190665,0.069233,-0.953902,-0.305345,72944,-125234,124954,3629825,-50011923,-16008854
0.145982,145.981560,-0.084819,0.160365,0.094533,0.067094,-0.946994,-0.308898,-55587,105097,61953,3517672,-49649760,-16195139
0.147011,147.010980,-0.036522,-0.088048,-0.051884,0.066084,-0.949980,-0.306338,-23935,-57703,-34003,3464689,-49806327,-16060909
0.147991,147.991380,0.110283,0.059517,0.190651,0.065976,-0.950528,-0.305474,72275,39005,124945,3459047,-49835049,-16015623
0.148972,148.971780,-0.084605,0.010669,0.045839,0.065688,-0.950069,-0.307840,-55447,6992,30041,3443955,-49810956,-16139681
0.150001,150.001200,0.110097,-0.089508,0.093253,0.066279,-0.950893,-0.310221,72153,-58660,61114,3474933,-49854193,-16264523
0.150982,150.981600,0.157957,0.061041,0.092920,0.068252,-0.953638,-0.304908,103519,40004,60896,3578365,-49998077,-15985951
0.152011,152.011020,-0.083203,-0.041463,0.191951,0.066946,-0.953707,-0.309308,-54528,-27173,125797,3509885,-50001739,-16216658
0.152991,152.991420,0.158162,0.010921,0.092923,0.069040,-0.951118,-0.305340,103653,7157,60898,3619703,-49865974,-16008636
0.153972,153.971820,0.061011,0.060674,0.093568,0.067178,-0.950606,-0.309736,39984,39763,61321,3522064,-49839132,-16239097
0.155001,155.001240,0.013364,-0.239571,0.045204,0.066692,-0.951543,-0.306351,8758,-157005,29625,3496573,-49888235,-16061640
0.155982,155.981640,0.012117,0.260304,0.142584,0.067767,-0.950518,-0.309138,7941,170593,93444,3552919,-49834534,-16207713
0.157011,157.011060,0.206023,0.161340,0.092592,0.066510,-0.950258,-0.308826,135019,105736,60681,3487061,-49820886,-16191372
0.157991,157.991460,0.205052,-0.086043,-0.150911,0.066110,-0.951942,-0.306163,134383,-56389,-98901,3466068,-49909151,-16051782
0.158972,158.971860,-0.039136,0.164987,-0.246712,0.064618,-0.948584,-0.305967,-25648,108126,-161685,3387833,-49733110,-16041463
0.160001,160.001280,-0.134479,0.062363,-0.099950,0.068539,-0.948651,-0.305308,-88132,40870,-65503,3593407,-49736645,-16006935
0.160982,160.981680,-0.036111,-0.188548,-0.051880,0.064424,-0.948902,-0.306487,-23666,-123567,-34000,3377692,-49749785,-16068732
0.162011,162.011100,0.203864,-0.084702,-0.248314,0.066010,-0.944371,-0.306845,133604,-55510,-162735,3460800,-49512229,-16087526
0.162992,162.991500,-0.182535,-0.038736,-0.050916,0.066611,-0.950830,-0.304324,-119626,-25386,-33368,3492358,-49850872,-15955362
0.163972,163.971900,-0.037737,0.211752,-0.003197,0.064010,-0.947340,-0.307179,-24731,138774,-2095,3355962,-49667877,-16105014
0.165001,165.001320,-0.135083,0.212054,-0.051253,0.066588,-0.946918,-0.307827,-88528,138972,-33589,3491137,-49645755,-16139026
0.165982,165.981720,-0.036919,0.011266,-0.003185,0.067765,-0.949884,-0.307348,-24195,7383,-2087,3552823,-49801273,-16113910
0.167011,167.011140,-0.085588,-0.038368,-0.051562,0.066099,-0.949011,-0.309760,-56091,-25145,-33792,3465480,-49755496,-16240339
0.167992,167.991540,0.059628,0.012305,-0.052536,0.068071,-0.950047,-0.309801,39078,8064,-34430,3568871,-49809800,-16242499
0.168972,168.971940,-0.181746,0.059494,0.095189,0.067926,-0.953734,-0.308788,-119109,38990,62383,3561297,-50003111,-16189367
0.170001,170.001360,-0.086403,0.162119,-0.051575,0.064611,-0.949266,-0.310209,-56625,106246,-33800,3387494,-49768891,-16263876
0.170982,170.981760,-0.183344,0.062177,-0.099625,0.066942,-0.946792,-0.306439,-120156,40748,-65290,3509682,-49639178,-16066227
0.172011,172.011180,-0.134451,-0.137454,-0.148639,0.065747,-0.946152,-0.309998,-88114,-90082,-97412,3447016,-49605590,-16252804
0.172992,172.991580,-0.182526,-0.138309,-0.099612,0.067252,-0.949576,-0.306754,-119620,-90642,-65282,3525917,-49785109,-16082753
0.173972,173.971980,-0.134247,-0.187575,-0.148636,0.067139,-0.947345,-0.308226,-87980,-122929,-97410,3520032,-49668167,-16159896
0.175001,175.001400,-0.038924,0.114192,-0.198004,0.067728,-0.943598,-0.304766,-25509,74837,-129764,3550913,-49471736,-15978491
0.175982,175.981800,0.108696,0.061269,0.044543,0.064622,-0.943290,-0.306799,71235,40153,29192,3388077,-49455571,-16085127
0.177011,177.011220,0.060204,0.260231,0.142262,0.065440,-0.945193,-0.303855,39455,170545,93233,3430962,-49555345,-15930753
0.177992,177.991620,-0.038321,0.063400,-0.149298,0.065057,-0.946780,-0.307678,-25114,41550,-97844,3410864,-49638549,-16131179
0.178972,178.972020,-0.329376,0.211989,-0.098660,0.067139,-0.947067,-0.307272,-215860,138929,-64658,3520001,-49653596,-16109915
0.180001,180.001440,-0.181969,0.308762,0.192581,0.068549,-0.950191,-0.307825,-119255,202350,126210,3593946,-49817376,-16138870
0.180982,180.981840,-0.037717,0.012607,-0.100592,0.066977,-0.952680,-0.307122,-24718,8262,-65924,3511548,-49947883,-16102049
0.182011,182.011260,0.063423,-0.043852,0.385794,0.065034,-0.954638,-0.310407,41565,-28739,252834,3409630,-50050516,-16274281
0.182992,182.991660,0.060233,-0.038486,-0.003830,0.065355,-0.954546,-0.307912,39474,-25222,-2510,3426466,-50045725,-16143452
0.183972,183.972060,-0.232243,0.361382,-0.001910,0.064943,-0.956480,-0.309644,-152203,236835,-1252,3404903,-50147100,-16234238
0.185001,185.001480,0.061633,-0.090620,0.142282,0.067196,-0.958222,-0.310722,40392,-59389,93246,3523002,-50238420,-16290757
0.185982,185.981880,-0.230406,-0.089714,-0.001884,0.066791,-0.954105,-0.310190,-150999,-58795,-1235,3501782,-50022562,-16262881
0.187011,187.011300,-0.086385,-0.037027,-0.148969,0.064649,-0.953999,-0.305892,-56613,-24266,-97628,3389453,-50017025,-16037528
0.187992,187.991700,0.156975,0.012003,-0.004482,0.068554,-0.949828,-0.305172,102875,7866,-2937,3594186,-49798362,-15999780
0.188972,188.972100,0.108696,0.061269,0.044543,0.071978,-0.951798,-0.308341,71235,40153,29192,3773715,-49901632,-16165960
0.190002,190.001520,-0.088008,0.264375,-0.197688,0.068001,-0.946738,-0.305921,-57677,173261,-129557,3565234,-49636313,-16039097
0.190982,190.981920,-0.233401,-0.034895,-0.342809,0.068337,-0.945319,-0.305226,-152962,-22869,-224663,3582820,-49561943,-16002643
0.192011,192.011340,0.059250,-0.186169,-0.198634,0.070405,-0.944506,-0.304409,38830,-122008,-130177,3691273,-49519323,-15959811
0.192992,192.991740,0.203261,-0.033910,-0.297020,0.065782,-0.945279,-0.307498,133209,-22223,-194655,3448890,-49559867,-16121727
0.193972,193.972140,0.061429,-0.040498,0.142279,0.064872,-0.943948,-0.304834,40258,-26541,93244,3401181,-49490039,-15982095
0.195002,195.001560,0.059007,0.262244,-0.003847,0.064895,-0.944641,-0.312834,38671,171864,-2521,3402363,-49526387,-16401511
0.195982,195.981960,0.253700,0.261638,0.092262,0.067090,-0.948190,-0.302547,166265,171467,60465,3517457,-49712470,-15862183
0.197011,197.011380,-0.179529,-0.193126,0.241312,0.065686,-0.949474,-0.305852,-117656,-126567,158146,3443830,-49779783,-16035428
0.197992,197.991780,-0.084399,0.059192,0.143243,0.065538,-0.951018,-0.309353,-55312,38792,93876,3436081,-49860724,-16219030
0.198972,198.972180,-0.085216,0.259679,0.143234,0.065159,-0.950930,-0.305518,-55847,170183,93870,3416192,-49856137,-16017943
0.200002,200.001600,-0.036732,0.160291,0.094211,0.066666,-0.952722,-0.307037,-24073,105048,61742,3495242,-49950052,-16097575
0.200982,200.982000,0.058023,0.114561,-0.198651,0.068565,-0.951248,-0.307596,38026,75079,-130188,3594790,-49872803,-16126882
0.202011,202.011420,-0.036734,0.160291,0.094211,0.062770,-0.952271,-0.310656,-24074,105048,61742,3290958,-49926441,-16287334
0.202992,202.991820,-0.229208,-0.091725,0.144225,0.066199,-0.952208,-0.304224,-150214,-60113,94519,3470712,-49923116,-15950112
0.203972,203.972220,-0.035693,-0.289465,-0.003169,0.064733,-0.951646,-0.306757,-23392,-189704,-2077,3393895,-49893639,-16082927
0.205002,205.001640,-0.085384,-0.088490,-0.051559,0.064742,-0.949370,-0.307034,-55957,-57993,-33790,3394341,-49774354,-16097440
0.205982,205.982040,0.350267,0.063533,-0.054483,0.068888,-0.951473,-0.305610,229551,41637,-35706,3611711,-49884591,-16022788
0.207011,207.011460,0.109299,0.010477,0.093250,0.069744,-0.945584,-0.307853,71630,6866,61112,3656595,-49575824,-16140352
0.207992,207.991860,-0.035489,-0.339584,-0.003165,0.065827,-0.941973,-0.304900,-23258,-222550,-2074,3451254,-49386500,-15985533
0.208972,208.972260,0.060640,-0.138730,-0.003824,0.064320,-0.947220,-0.307716,39741,-90918,-2506,3372211,-49661591,-16133160
0.210002,210.001680,0.010747,0.112366,-0.052217,0.064398,-0.944236,-0.307672,7043,73640,-34221,3376335,-49505173,-16130859
0.210982,210.982080,-0.277885,-0.041789,0.144545,0.065504,-0.944929,-0.307793,-182115,-27387,94729,3434305,-49541512,-16137212
0.212012,212.011500,-0.037930,0.162303,-0.051898,0.063407,-0.946248,-0.307233,-24858,106367,-34012,3324378,-49610659,-16107856
0.212992,212.991900,0.009930,0.312851,-0.052229,0.065298,-0.947090,-0.307674,6508,205030,-34229,3423482,-49654781,-16130980
0.213972,213.972300,-0.133440,-0.288490,-0.099928,0.069525,-0.946684,-0.307325,-87451,-189065,-65489,3645113,-49633482,-16112686
0.215002,215.001720,-0.034895,-0.290807,0.094238,0.066096,-0.951320,-0.308246,-22869,-190583,61760,3465316,-49876561,-16160987
0.215982,215.982120,-0.134079,0.160593,0.046201,0.069371,-0.946921,-0.307369,-87870,105246,30278,3637049,-49645933,-16114994
0.217012,217.011540,-0.036928,0.110838,0.045601,0.063972,-0.950440,-0.307259,-24201,72639,29885,3353954,-49830438,-16109231
0.217992,217.991940,0.012538,0.159132,0.191382,0.064473,-0.953067,-0.308283,8217,104289,125424,3380233,-49968135,-16162898
0.218972,218.972340,0.012140,0.159802,0.142680,0.067712,-0.952045,-0.308206,7956,104728,93507,3550043,-49914600,-16158891
0.220002,220.001760,0.013170,-0.190379,0.093997,0.068317,-0.950469,-0.308456,8631,-124767,61602,3581785,-49831959,-16171988
0.220982,220.982160,0.062451,-0.291109,0.142383,0.066181,-0.952385,-0.310283,40928,-190781,93312,3469810,-49932405,-16267762
0.222012,222.011580,0.158571,0.009319,0.190421,0.065963,-0.950144,-0.308235,103921,6107,124794,3458347,-49814922,-16160375
0.222992,222.991980,0.205655,-0.037935,-0.004712,0.066568,-0.949005,-0.309875,134778,-24861,-3088,3490096,-49755204,-16246389
0.223972,223.972380,-0.276465,-0.293068,0.193352,0.067231,-0.950432,-0.304354,-181184,-192065,126715,3524823,-49829997,-15956911
0.225002,225.001800,0.009950,0.113705,-0.149536,0.063813,-0.947701,-0.308293,6521,74518,-98000,3345625,-49686806,-16163429
0.225982,225.982200,-0.085587,-0.038370,-0.051472,0.063586,-0.945587,-0.309134,-56090,-25146,-33733,3333763,-49575998,-16207522
0.227012,227.011620,-0.038737,0.263216,-0.100516,0.064944,-0.950196,-0.307689,-25387,172501,-65874,3404956,-49817647,-16131745
0.227992,227.992020,0.010562,-0.036659,-0.149525,0.066575,-0.952060,-0.307863,6922,-24025,-97993,3490426,-49915383,-16140879
0.228972,228.972420,0.011758,-0.038672,-0.003416,0.065640,-0.949322,-0.306994,7706,-25344,-2239,3441449,-49771815,-16095342
0.230002,230.001840,0.303206,-0.088358,0.043346,0.067143,-0.950403,-0.307198,198709,-57906,28407,3520216,-49828489,-16105999
0.230982,230.982240,0.011360,-0.038000,-0.052121,0.065353,-0.948663,-0.308648,7445,-24904,-34158,3426388,-49737258,-16182042
0.232012,232.011660,0.446613,0.114691,-0.103746,0.067584,-0.948120,-0.307280,292692,75164,-67991,3543357,-49708818,-16110321
0.232992,232.992060,-0.181950,0.109615,0.095274,0.065057,-0.949524,-0.307041,-119243,71837,62439,3410840,-49782414,-16097778
0.233972,233.972460,-0.181337,-0.040750,0.095284,0.066308,-0.950307,-0.311078,-118841,-26706,62445,3476430,-49823456,-16309453
0.235002,235.001880,-0.132260,-0.091357,0.143666,0.066739,-0.947120,-0.310119,-86678,-59872,94153,3499054,-49656366,-16259174
0.235982,235.982280,-0.084204,0.108643,0.192033,0.066894,-0.951772,-0.305321,-55184,71200,125851,3507163,-49900264,-16007588
0.237012,237.011700,-0.085605,0.160776,0.045921,0.068692,-0.945750,-0.306454,-56102,105366,30095,3601443,-49584525,-16067003
0.237992,237.992100,-0.134477,0.161263,-0.002457,0.069386,-0.947780,-0.305927,-88131,105685,-1610,3637846,-49690968,-16039389
0.238973,238.972500,-0.134254,-0.088004,-0.099849,0.068405,-0.945169,-0.307676,-87985,-57674,-65437,3586418,-49554091,-16131068
0.240002,240.001920,0.011760,-0.038670,-0.003416,0.069205,-0.948880,-0.305549,7707,-25343,-2239,3628353,-49748660,-16019554
0.240982,240.982320,0.448811,0.061217,0.139772,0.066065,-0.945546,-0.305996,294133,40119,91601,3463709,-49573821,-16043017
0.242012,242.011740,0.156364,0.162367,-0.004401,0.066268,-0.949910,-0.309420,102475,106409,-2884,3474341,-49802656,-16222541
0.242992,242.992140,0.159380,-0.091594,0.239130,0.069013,-0.949515,-0.307023,104451,-60027,156716,3618267,-49781956,-16096835
0.243973,243.972540,0.056644,-0.032451,-0.442068,0.066966,-0.951221,-0.304807,37122,-21267,-289714,3510941,-49871356,-15980660
0.245002,245.001960,0.107899,0.062608,-0.052687,0.068280,-0.950467,-0.307353,70713,41031,-34529,3579835,-49831864,-16114172
0.245982,245.982360,-0.085196,0.060530,0.046013,0.065106,-0.950069,-0.305747,-55834,39669,30155,3413442,-49810998,-16029974
0.247012,247.011780,-0.230403,-0.089716,-0.001709,0.065890,-0.950657,-0.308243,-150997,-58796,-1120,3454508,-49841787,-16160786
0.247992,247.992180,-0.181540,0.009370,0.095367,0.064374,-0.953923,-0.305413,-118974,6141,62500,3375058,-50013035,-16012431
0.248973,248.972580,0.108708,-0.038304,-0.003979,0.067123,-0.951536,-0.305953,71243,-25103,-2608,3519177,-49887915,-16040740
0.250002,250.002000,-0.131851,-0.191603,0.143758,0.061650,-0.950201,-0.308898,-86410,-125569,94213,3232233,-49817885,-16195131
0.250982,250.982400,-0.035710,-0.090320,0.094402,0.068513,-0.950586,-0.308501,-23403,-59192,61867,3592048,-49838088,-16174312
0.252012,252.011820,-0.179916,-0.292030,0.144086,0.064428,-0.950448,-0.310939,-117910,-191385,94428,3377907,-49830852,-16302161
0.252992,252.992220,-0.231201,-0.088374,-0.099115,0.067666,-0.948434,-0.307324,-151520,-57917,-64956,3547631,-49725272,-16112604
0.253973,253.972620,0.056421,0.216814,-0.344591,0.068997,-0.948618,-0.308464,36976,142091,-225831,3617408,-49734900,-16172408
0.255002,255.002040,-0.086392,0.062543,-0.100096,0.069495,-0.950929,-0.308969,-56618,40988,-65599,3643556,-49856054,-16198876
0.255982,255.982440,0.058852,-0.185501,-0.247162,0.066162,-0.944333,-0.307551,38569,-121570,-161980,3468774,-49510257,-16124532
0.257012,257.011860,-0.134264,0.011566,-0.051067,0.068762,-0.946195,-0.310725,-87991,7580,-33467,3605094,-49607890,-16290924
0.257992,257.992260,-0.038736,0.263214,-0.100430,0.067124,-0.949588,-0.310034,-25386,172500,-65818,3519208,-49785761,-16254688
0.258973,258.972660,-0.231599,-0.087703,-0.147818,0.067655,-0.947570,-0.307074,-151781,-57477,-96874,3547081,-49679979,-16099504
0.260002,260.002080,0.157599,-0.237938,-0.052995,0.062619,-0.949444,-0.309152,103284,-155935,-34731,3283026,-49778221,-16208488
0.260982,260.982480,-0.327351,-0.090083,-0.001062,0.065876,-0.949438,-0.307592,-214533,-59037,-696,3453783,-49777910,-16126680
0.262012,262.011900,0.108708,-0.038304,-0.003979,0.067564,-0.952793,-0.307906,71243,-25103,-2608,3542306,-49953815,-16143149
0.262992,262.992300,-0.133067,0.009554,0.095042,0.068551,-0.951303,-0.311794,-87207,6261,62287,3594037,-49875675,-16346963
0.263973,263.972700,-0.035312,-0.090991,0.143105,0.066421,-0.949236,-0.307823,-23142,-59632,93785,3482362,-49767317,-16138774
0.265002,265.002120,0.303001,-0.038239,0.043428,0.067536,-0.951073,-0.309780,198575,-25060,28461,3540809,-49863636,-16241388
0.265983,265.982520,0.010962,-0.037332,-0.100737,0.067172,-0.947153,-0.309449,7184,-24466,-66019,3521741,-49658075,-16224016
0.267012,267.011940,0.010934,0.261388,0.045354,0.064717,-0.950867,-0.308214,7166,171303,29723,3393030,-49852835,-16159287
0.267992,267.992340,-0.038531,0.213094,-0.100429,0.064000,-0.947190,-0.308956,-25252,139653,-65817,3355461,-49660030,-16198218
0.268973,268.972740,-0.036528,0.110165,0.094389,0.069622,-0.951316,-0.307712,-23939,72198,61859,3650195,-49876335,-16132997
0.270002,270.002160,-0.134070,0.061017,-0.002367,0.067064,-0.947820,-0.309143,-87864,39988,-1551,3516088,-49693063,-16207978
0.270983,270.982560,-0.230608,-0.039594,-0.001712,0.063878,-0.949542,-0.307686,-151131,-25948,-1122,3349071,-49783328,-16131623
0.272012,272.011980,-0.037122,0.061386,-0.003012,0.064973,-0.949093,-0.306763,-24328,40230,-1974,3406436,-49759831,-16083197
0.272992,272.992380,-0.181172,0.307419,0.290076,0.066925,-0.951462,-0.306270,-118733,201470,190104,3508799,-49883989,-16057343
0.273973,273.972780,-0.036278,-0.139771,0.045618,0.067087,-0.946285,-0.307815,-23775,-91600,29896,3517314,-49612577,-16138367
0.275002,275.002200,0.061458,-0.041171,0.191074,0.067883,-0.947098,-0.307544,40277,-26982,125222,3559003,-49655223,-16124188
0.275983,275.982600,0.349712,-0.085493,-0.151787,0.064808,-0.949661,-0.311597,229187,-56029,-99475,3397797,-49789576,-16336683
0.277012,277.012020,0.059444,0.161327,0.044952,0.060697,-0.949311,-0.309128,38957,105727,29460,3182285,-49771221,-16207235
0.277992,277.992420,-0.036481,-0.089648,0.045615,0.069414,-0.950614,-0.308653,-23908,-58752,29894,3639310,-49839574,-16182310
0.278973,278.972820,0.059668,-0.087939,-0.052438,0.066374,-0.948210,-0.306187,39104,-57632,-34366,3479927,-49713526,-16052992
0.280002,280.002240,-0.229764,-0.240752,0.046918,0.069312,-0.948333,-0.306841,-150578,-157779,30748,3633964,-49719976,-16087288
0.280983,280.982640,-0.038290,0.062727,-0.100504,0.064030,-0.945648,-0.305849,-25094,41109,-65866,3357030,-49579190,-16035284
0.282012,282.012060,0.252531,0.262979,-0.005051,0.068114,-0.947576,-0.310793,165499,172346,-3310,3571153,-49680285,-16294512
0.282992,282.992460,-0.280260,0.061136,-0.050182,0.065000,-0.949026,-0.310321,-183671,40066,-32887,3407893,-49756273,-16269767
0.283973,283.972860,0.011417,-0.337390,-0.149507,0.065774,-0.950378,-0.306697,7482,-221112,-97981,3448459,-49827156,-16079732
0.285002,285.002280,0.011378,0.060899,0.045282,0.063201,-0.949244,-0.310416,7457,39911,29676,3313532,-49767737,-16274723
0.285983,285.982680,0.012779,0.008766,0.191394,0.067465,-0.948283,-0.308356,8375,5745,125432,3537103,-49717332,-16166709
0.287012,287.012100,-0.133040,0.008884,0.143663,0.070171,-0.949042,-0.310088,-87189,5822,94151,3679000,-49757109,-16257567
0.287992,287.992500,-0.086365,0.061873,-0.051476,0.063928,-0.951002,-0.309685,-56600,40549,-33735,3351690,-49859869,-16236400
0.288973,288.972900,-0.084761,-0.040382,0.094638,0.062484,-0.950138,-0.304382,-55549,-26465,62022,3275985,-49814617,-15958373
0.290002,290.002320,0.058870,-0.086598,-0.149844,0.066993,-0.951312,-0.308244,38581,-56753,-98202,3512373,-49876163,-16160888
0.290983,290.982720,-0.084557,-0.090504,0.094643,0.064124,-0.947261,-0.306702,-55415,-59313,62025,3361950,-49663771,-16080022
0.292012,292.012140,-0.082747,-0.242882,0.240759,0.063663,-0.951433,-0.308783,-54229,-159175,157784,3337757,-49882516,-16189124
0.292993,292.992540,0.108122,0.111389,0.044630,0.065171,-0.950043,-0.309302,70859,73000,29249,3416830,-49809625,-16216328
0.293973,293.972940,-0.084352,-0.140625,0.094644,0.067827,-0.952245,-0.308564,-55281,-92160,62026,3556111,-49925041,-16177656
0.295002,295.002360,-0.084381,0.158092,0.240736,0.065834,-0.952145,-0.307073,-55300,103607,157769,3451603,-49919819,-16099487
0.295983,295.982760,0.010582,0.062242,-0.052122,0.064301,-0.948391,-0.305803,6935,40791,-34159,3371241,-49723025,-16032888
0.297012,297.012180,0.159621,-0.242104,0.239140,0.067653,-0.950634,-0.308147,104609,-158665,156723,3546990,-49840601,-16155752
0.297993,297.992580,0.251958,0.014763,-0.199849,0.069054,-0.950150,-0.309277,165123,9675,-130973,3620419,-49815206,-16215024
0.298973,298.972980,0.153221,-0.032375,-0.442714,0.066051,-0.947349,-0.305736,100415,-21217,-290137,3462978,-49668393,-16029396
0.300002,300.002400,-0.084564,0.008780,0.143338,0.066646,-0.952107,-0.310746,-55420,5754,93938,3494153,-49917824,-16292028
0.300983,300.982800,-0.085567,0.060243,0.045885,0.064862,-0.949446,-0.306329,-56077,39481,30071,3400634,-49778304,-16060450
0.302012,302.012220,-0.085402,0.011465,-0.051567,0.063462,-0.950844,-0.308613,-55969,7514,-33795,3327235,-49851626,-16180220
0.302993,302.992620,0.060233,-0.137675,-0.101233,0.064556,-0.950396,-0.307650,39474,-90227,-66344,3384585,-49828140,-16129718
0.303973,303.973020,0.057423,0.066164,-0.344760,0.063908,-0.948875,-0.307870,37633,43361,-225942,3350638,-49748354,-16141232
0.305002,305.002440,0.155177,-0.034381,-0.296698,0.066695,-0.946250,-0.307852,101697,-22532,-194444,3496741,-49610768,-16140311
0.305983,305.982840,-0.279102,0.060181,-0.001573,0.067936,-0.947799,-0.306086,-182912,39440,-1031,3561780,-49691959,-16047728
0.307012,307.012260,0.014337,0.007143,0.288707,0.064955,-0.951139,-0.308291,9396,4681,189207,3405527,-49867083,-16163318
0.307993,307.992660,-0.036325,-0.039140,-0.003185,0.063090,-0.946972,-0.310972,-23806,-25651,-2087,3307724,-49648609,-16303899
0.308973,308.973060,0.205450,-0.087001,-0.102208,0.063416,-0.947750,-0.310230,134644,-57017,-66983,3324817,-49689418,-16264975
0.310002,310.002480,0.011536,0.111409,-0.003517,0.064353,-0.952195,-0.304988,7560,73013,-2305,3373928,-49922467,-15990141
0.310983,310.982880,-0.180568,0.157442,0.241289,0.065834,-0.952185,-0.307193,-118337,103181,158131,3451595,-49921914,-16105736
0.312012,312.012300,-0.037521,-0.037131,-0.149295,0.064128,-0.948093,-0.309360,-24590,-24334,-97842,3362146,-49707361,-16219359
0.312993,312.992700,-0.086198,0.012807,-0.148975,0.065292,-0.953259,-0.309546,-56491,8393,-97632,3423173,-49978218,-16229101
0.313973,313.973100,-0.376050,0.059813,-0.000925,0.063404,-0.949949,-0.310420,-246448,39199,-606,3324210,-49804703,-16274950
0.315003,315.002520,-0.084215,0.109029,0.143239,0.068039,-0.949999,-0.307067,-55191,71453,93873,3567206,-49807312,-16099141
0.315983,315.982920,0.207649,-0.140474,0.141312,0.064888,-0.949181,-0.308975,136085,-92061,92610,3401987,-49764407,-16199183
0.317012,317.012340,-0.182144,-0.039024,-0.050917,0.063771,-0.949970,-0.306144,-119370,-25575,-33369,3343435,-49805784,-16050758
0.317993,317.992740,0.012752,-0.089749,0.045197,0.069839,-0.947276,-0.309142,8357,-58818,29620,3661549,-49664535,-16207953
0.318973,318.973140,0.109894,-0.039929,0.093250,0.069408,-0.944736,-0.311125,72020,-26168,61112,3638988,-49531374,-16311934
0.320003,320.002560,-0.086821,0.262746,-0.100284,0.066009,-0.947830,-0.308464,-56899,172193,-65722,3460790,-49693575,-16172410
0.320983,320.982960,0.012538,0.059946,0.093892,0.063691,-0.949415,-0.304666,8217,39286,61533,3339267,-49776703,-15973289
0.322012,322.012380,-0.035507,-0.239629,-0.003174,0.068681,-0.947630,-0.305477,-23270,-157043,-2080,3600841,-49683107,-16015771
0.322993,322.992780,0.063425,-0.143039,0.288391,0.064490,-0.948635,-0.308921,41566,-93742,189000,3381153,-49735778,-16196377
0.323973,323.973180,-0.036334,0.060431,0.045511,0.065457,-0.948159,-0.311083,-23812,39604,29826,3431817,-49710844,-16309732
0.325003,325.002600,0.350240,0.263335,-0.005794,0.066143,-0.946262,-0.309392,229533,172579,-3797,3467776,-49611355,-16221057
0.325983,325.983000,-0.036354,0.260121,0.142906,0.067576,-0.953775,-0.308432,-23825,170473,93655,3542911,-50005301,-16170739
0.327012,327.012420,0.206636,0.011104,0.092599,0.067015,-0.953596,-0.311363,135421,7277,60686,3513512,-49995902,-16324378
0.327993,327.992820,0.111887,-0.042740,0.336765,0.066144,-0.953020,-0.311875,73326,-28010,220702,3467839,-49965692,-16351208
0.328973,328.973220,-0.035324,-0.090060,0.094223,0.064525,-0.954404,-0.309018,-23150,-59022,61750,3382993,-50038250,-16201455
0.330003,330.002640,0.303203,-0.088101,0.043256,0.067630,-0.951930,-0.308289,198707,-57738,28348,3545755,-49908568,-16163208
0.330983,330.983040,0.011757,-0.038414,-0.003506,0.067577,-0.950832,-0.308194,7705,-25175,-2298,3542966,-49850980,-16158243
0.332012,332.012460,-0.084567,-0.288721,-0.051549,0.067754,-0.949020,-0.306663,-55422,-189216,-33783,3552253,-49755963,-16077994
0.332993,332.992860,-0.037105,-0.137498,-0.100583,0.064325,-0.947851,-0.308254,-24317,-90111,-65918,3372468,-49694667,-16161397
0.333973,333.973260,-0.232011,0.012799,-0.148000,0.071672,-0.952271,-0.307598,-152051,8388,-96993,3757691,-49926422,-16127009
0.335003,335.002680,0.059229,0.013232,-0.101239,0.065096,-0.950557,-0.310901,38816,8672,-66348,3412910,-49836589,-16300172
0.335983,335.983080,-0.182146,0.060422,0.046486,0.064600,-0.948681,-0.311352,-119371,39598,30465,3386896,-49738231,-16323803
0.337012,337.012500,-0.034720,-0.041951,0.240334,0.067228,-0.947930,-0.307447,-22754,-27493,157505,3524669,-49698829,-16119066
0.337993,337.992900,0.109494,0.060185,0.141949,0.064144,-0.948911,-0.307957,71758,39443,93028,3362973,-49750281,-16145798
0.338973,338.973300,-0.135454,-0.085733,-0.246048,0.063679,-0.948632,-0.304950,-88771,-56186,-161250,3338638,-49735657,-15988147
0.340003,340.002720,-0.233820,0.165176,-0.294118,0.065494,-0.948200,-0.311418,-153236,108250,-192753,3433798,-49712978,-16327263
0.340983,340.983120,0.012778,-0.289023,-0.003491,0.065333,-0.949917,-0.307842,8374,-189414,-2288,3425306,-49802989,-16139797
0.342013,342.012540,0.206645,0.010432,0.141304,0.065956,-0.947367,-0.310721,135427,6837,92605,3458017,-49669338,-16290739
0.342993,342.992940,0.255936,-0.189871,0.140993,0.064193,-0.949259,-0.306607,167730,-124434,92401,3365538,-49768497,-16075061
0.344022,344.022360,0.060231,-0.038229,-0.003830,0.063102,-0.947119,-0.308206,39473,-25054,-2510,3308338,-49656322,-16158848
0.345003,345.002760,0.011757,-0.038414,-0.003505,0.065517,-0.949409,-0.309567,7705,-25175,-2297,3434984,-49776388,-16230239
0.345983,345.983160,0.010541,0.162743,-0.052220,0.067613,-0.947813,-0.309292,6908,106655,-34223,3544861,-49692697,-16215834
0.347013,347.012580,0.060611,0.160245,0.142267,0.064986,-0.947609,-0.308991,39722,105018,93236,3407141,-49681992,-16200026
0.347993,347.992980,-0.082611,0.106216,0.386757,0.069164,-0.949958,-0.310974,-54140,69610,253465,3626161,-49805145,-16304012
0.349022,349.022400,0.012741,0.109268,0.191298,0.068856,-0.946854,-0.308793,8350,71610,125369,3610021,-49642435,-16189663
0.350003,350.002800,-0.036336,0.159877,0.142914,0.069344,-0.947864,-0.307493,-23813,104777,93660,3635620,-49695354,-16121477
0.350983,350.983200,0.202666,-0.082433,-0.394424,0.063258,-0.949264,-0.304944,132819,-54023,-258490,3316560,-49768780,-15987841
0.352013,352.012620,-0.184151,0.163350,-0.148332,0.070454,-0.949069,-0.308215,-120685,107053,-97211,3693842,-49758543,-16159323
0.352993,352.993020,-0.135257,-0.036555,-0.197348,0.065795,-0.948766,-0.305987,-88642,-23957,-129334,3449563,-49742641,-16042547
0.354022,354.022440,0.110118,-0.190295,0.093260,0.066497,-0.945858,-0.307562,72167,-124712,61119,3486334,-49590217,-16125107
0.355003,355.002840,-0.135266,0.062744,-0.148651,0.062061,-0.948228,-0.307627,-88648,41120,-97420,3253773,-49714468,-16128494
0.355983,355.983240,0.060632,-0.039445,0.044873,0.066088,-0.948028,-0.309455,39736,-25851,29408,3464906,-49703964,-16224375
0.357013,357.012660,-0.279677,-0.088844,-0.098967,0.064834,-0.949793,-0.304587,-183289,-58225,-64859,3399150,-49796508,-15969132
0.357993,357.993060,-0.086394,0.062257,-0.100272,0.065434,-0.948858,-0.308531,-56619,40801,-65714,3430650,-49747479,-16175926
0.359022,359.022480,-0.036314,-0.039813,0.045520,0.067513,-0.949307,-0.309592,-23799,-26092,29832,3539628,-49771032,-16231519
0.360003,360.002880,-0.280688,0.062192,-0.147679,0.063893,-0.947697,-0.307773,-183952,40758,-96783,3349843,-49686638,-16136190
0.360983,360.983280,0.254916,0.060194,0.140977,0.067776,-0.947367,-0.305250,167062,39449,92391,3553407,-49669300,-16003907
0.362013,362.012700,-0.084407,0.158478,0.191942,0.066697,-0.949827,-0.309605,-55317,103860,125791,3496844,-49798311,-16232207
0.362993,362.993100,-0.036324,0.059760,0.094218,0.065650,-0.950187,-0.307600,-23805,39164,61747,3441966,-49817155,-16127092
0.364023,364.022520,0.011945,0.110066,0.093892,0.066848,-0.951183,-0.304798,7828,72133,61533,3504748,-49869391,-15980186
0.365003,365.002920,-0.085382,-0.088779,-0.051559,0.063092,-0.949435,-0.308118,-55956,-58182,-33790,3307844,-49777744,-16154277
0.365983,365.983320,0.106091,0.214700,-0.198981,0.068189,-0.949010,-0.305579,69528,140706,-130404,3575071,-49755471,-16021142
0.367013,367.012740,0.011340,0.160858,0.045184,0.069947,-0.948875,-0.306791,7432,105420,29612,3667212,-49748380,-16084699
0.367993,367.993140,-0.280511,0.310789,-0.001584,0.065725,-0.947089,-0.308613,-183836,203679,-1038,3445882,-49654715,-16180235
0.369023,369.022560,-0.084184,-0.090788,0.094551,0.066155,-0.949788,-0.307819,-55171,-59499,61965,3468408,-49796261,-16138592
0.370003,370.002960,-0.036101,-0.189508,-0.003174,0.066570,-0.949004,-0.309427,-23659,-124196,-2080,3490195,-49755123,-16222870
0.370983,370.983360,-0.133263,-0.040181,0.046169,0.066839,-0.948330,-0.308426,-87335,-26333,30257,3504281,-49719800,-16170416
0.372013,372.012780,0.061217,0.108910,0.190973,0.063999,-0.947152,-0.309576,40119,71375,125156,3355378,-49658050,-16230672
0.372993,372.993180,0.011351,0.061284,-0.003513,0.066782,-0.952762,-0.307544,7439,40163,-2302,3501308,-49952167,-16124156
0.374023,374.022600,-0.132260,-0.091643,0.143578,0.067693,-0.950991,-0.309261,-86678,-60059,94095,3549060,-49859334,-16214186
0.375003,375.003000,-0.035712,-0.090605,0.094226,0.066826,-0.949973,-0.306648,-23404,-59379,61752,3503608,-49805947,-16077208
0.375983,375.983400,0.012167,-0.139201,-0.003500,0.069102,-0.950617,-0.308106,7974,-91227,-2294,3622947,-49839711,-16153617
0.377013,377.012820,0.159184,-0.141330,0.190341,0.068405,-0.954037,-0.307290,104323,-92622,124742,3586401,-50019010,-16110849
0.377993,377.993220,0.207845,0.007877,0.287413,0.066464,-0.949510,-0.307593,136213,5162,188359,3484644,-49781653,-16126757
0.379023,379.022640,-0.086792,0.062927,-0.148975,0.067681,-0.949412,-0.306397,-56880,41240,-97632,3548458,-49776548,-16064036
0.380003,380.003040,0.157979,-0.039748,0.092928,0.068818,-0.949397,-0.306112,103533,-26049,60901,3608069,-49775768,-16049101
0.380983,380.983440,-0.083806,0.107829,0.240648,0.067618,-0.950671,-0.306928,-54923,70667,157711,3545126,-49842519,-16091854
0.382013,382.012860,0.156577,0.012674,-0.053185,0.067560,-0.952122,-0.306745,102614,8306,-34855,3542107,-49918595,-16082257
0.382993,382.993260,0.159389,-0.191167,0.190343,0.066559,-0.950367,-0.306568,104457,-125283,124743,3489599,-49826612,-16072981
0.384023,384.022680,-0.131853,-0.191600,0.143582,0.066734,-0.949790,-0.310593,-86411,-125567,94098,3498797,-49796336,-16284003
0.385003,385.003080,-0.085002,0.109984,0.094539,0.067096,-0.947032,-0.308652,-55707,72079,61957,3517775,-49651751,-16182234
0.385983,385.983480,0.207892,-0.191656,0.238899,0.063843,-0.946119,-0.305259,136244,-125604,156565,3347223,-49603881,-16004355
0.387013,387.012900,-0.087154,-0.036360,-0.197493,0.066763,-0.951390,-0.308124,-57117,-23829,-129429,3500309,-49880242,-16154567
0.387993,387.993300,0.105933,0.065289,-0.247498,0.066978,-0.947194,-0.309644,69424,42788,-162200,3511553,-49660229,-16234245
0.389023,389.022720,0.058870,-0.086600,-0.149759,0.069135,-0.949908,-0.307693,38581,-56754,-98146,3624667,-49802517,-16131972
0.390003,390.003120,-0.084155,-0.091176,0.143431,0.064526,-0.948479,-0.309569,-55152,-59753,93999,3383034,-49727628,-16230350
0.390984,390.983520,-0.233800,0.263818,-0.196539,0.067713,-0.949539,-0.309682,-153223,172896,-128804,3550129,-49783199,-16236240
0.392013,392.012940,-0.037083,-0.038858,-0.003004,0.066496,-0.949199,-0.309131,-24303,-25466,-1969,3486310,-49765371,-16207385
0.392993,392.993340,-0.182922,0.160405,0.046657,0.063936,-0.947574,-0.306633,-119880,105123,30577,3352095,-49680178,-16076414
0.394023,394.022760,-0.135228,-0.037215,-0.148466,0.068976,-0.950032,-0.309047,-88623,-24389,-97299,3616305,-49809024,-16202987
0.395003,395.003160,-0.132816,-0.240385,0.046356,0.067843,-0.949764,-0.306955,-87042,-157539,30380,3556902,-49794991,-16093277
0.395984,395.983560,0.060864,-0.089954,0.093755,0.067724,-0.950323,-0.309456,39888,-58952,61443,3550704,-49824304,-16224390
0.397013,397.012980,0.254175,-0.237570,-0.053641,0.064718,-0.950628,-0.307303,166576,-155694,-35154,3393105,-49840268,-16111516
0.397993,397.993380,0.256355,-0.091899,0.287273,0.070180,-0.951538,-0.306242,168005,-60227,188267,3679438,-49888002,-16055876
0.399023,399.022800,-0.038290,0.062726,-0.100417,0.068972,-0.948962,-0.305929,-25094,41108,-65809,3616099,-49752939,-16039482
0.400003,400.003200,0.107742,-0.087086,-0.101379,0.065277,-0.946476,-0.311732,70610,-57073,-66440,3422379,-49622596,-16343753
0.400984,400.983600,0.202074,0.166573,-0.296854,0.067080,-0.947963,-0.305373,132431,109165,-194546,3516910,-49700570,-16010363
0.402013,402.013020,-0.183731,0.261319,-0.002051,0.067770,-0.947056,-0.306503,-120410,171258,-1344,3553074,-49653004,-16069565
0.402993,402.993420,0.111148,-0.242146,0.239549,0.064346,-0.948863,-0.306236,72842,-158693,156991,3373592,-49747744,-16055572
0.404023,404.022840,0.060884,-0.289099,-0.003639,0.063996,-0.946002,-0.306078,39901,-189464,-2385,3355224,-49597754,-16047296
0.405003,405.003240,0.060464,-0.089282,0.045052,0.064382,-0.948428,-0.305440,39626,-58512,29525,3375483,-49724950,-16013871
0.405984,405.983640,0.205478,0.011513,0.044075,0.065047,-0.948460,-0.305485,134662,7545,28885,3410359,-49726636,-16016194
0.407013,407.013060,-0.087378,0.212907,-0.100102,0.064212,-0.950551,-0.305646,-57264,139531,-65603,3366552,-49836261,-16024662
0.407993,407.993460,-0.039467,-0.134407,-0.343921,0.065693,-0.949666,-0.304595,-25865,-88085,-225392,3444183,-49789863,-15969544
0.409023,409.022880,-0.183118,0.110811,-0.002042,0.065904,-0.948335,-0.306394,-120008,72621,-1338,3455292,-49720089,-16063846
0.410003,410.003280,-0.086754,-0.037317,-0.148792,0.063786,-0.948961,-0.309660,-56855,-24456,-97512,3344245,-49752879,-16235125
0.410984,410.983680,-0.280853,0.012067,-0.147498,0.063290,-0.949113,-0.306304,-184060,7908,-96664,3318212,-49760843,-16059149
0.412013,412.013100,-0.180704,-0.092503,0.192781,0.067026,-0.947024,-0.305734,-118426,-60623,126341,3514077,-49651357,-16029268
0.412994,412.993500,-0.085550,-0.089453,-0.002676,0.068343,-0.951476,-0.303968,-56066,-58624,-1754,3583162,-49884746,-15936677
0.414023,414.022920,0.011598,-0.089757,0.045473,0.066446,-0.950881,-0.306739,7601,-58823,29801,3483660,-49853567,-16081944
0.415003,415.003320,-0.039482,0.063777,-0.197728,0.068568,-0.946554,-0.311289,-25875,41797,-129583,3594962,-49626675,-16320519
0.415984,415.983720,-0.086340,-0.138235,-0.099986,0.067218,-0.947344,-0.308027,-56584,-90594,-65527,3524157,-49668128,-16149479
0.417013,417.013140,0.059070,-0.038109,-0.052260,0.065407,-0.943001,-0.305207,38712,-24975,-34249,3429215,-49440433,-16001654
0.417994,417.993540,-0.038286,0.061765,-0.051619,0.068817,-0.949042,-0.305193,-25091,40478,-33829,3607968,-49757134,-16000891
0.419023,419.022960,-0.085564,0.059569,0.094814,0.067657,-0.951108,-0.308553,-56075,39039,62137,3547193,-49865448,-16177074
0.420003,420.003360,-0.085173,0.158472,0.192215,0.065231,-0.950936,-0.306827,-55819,103856,125970,3420003,-49856423,-16086561
0.420984,420.983760,-0.036487,0.008960,0.143196,0.066784,-0.950454,-0.309378,-23912,5872,93845,3501411,-49831177,-16220317
0.422013,422.013180,-0.279848,-0.040070,-0.001291,0.065821,-0.950687,-0.305391,-183401,-26260,-846,3450936,-49843394,-16011268
0.422994,422.993580,-0.085368,0.109021,0.143513,0.064429,-0.952079,-0.305697,-55947,71448,94053,3377910,-49916335,-16027339
0.424023,424.023000,-0.083754,-0.092807,0.240932,0.062815,-0.949442,-0.309230,-54889,-60822,157897,3293340,-49778084,-16212545
0.425003,425.003400,0.158011,-0.041095,0.190607,0.063836,-0.949069,-0.307161,103554,-26932,124916,3346841,-49758553,-16104063
0.425984,425.983800,0.057660,0.113596,-0.149673,0.065451,-0.949636,-0.306683,37788,74446,-98090,3431533,-49788292,-16079033
0.427013,427.013220,0.158809,-0.042435,0.288013,0.066141,-0.944752,-0.303799,104077,-27810,188752,3467698,-49532234,-15927829
0.427994,427.993620,0.107124,0.161891,-0.003893,0.066554,-0.950094,-0.306761,70205,106097,-2551,3489350,-49812284,-16083134
0.429023,429.023040,0.012386,0.008473,0.191576,0.065708,-0.949055,-0.309721,8117,5553,125551,3445001,-49757794,-16238295
0.430003,430.003440,0.154616,0.014391,-0.199019,0.065284,-0.949052,-0.307199,101329,9431,-130429,3422770,-49757681,-16106080
0.430984,430.983840,-0.083559,-0.043355,0.289632,0.063150,-0.947309,-0.305804,-54761,-28413,189813,3310868,-49666249,-16032932
0.432013,432.013260,0.060246,0.159024,0.191243,0.067489,-0.946708,-0.306399,39483,104218,125333,3538371,-49634755,-16064106
0.432994,432.993660,0.057065,0.064816,-0.247078,0.066464,-0.946528,-0.307669,37398,42478,-161925,3484624,-49625349,-16130695
0.434023,434.023080,0.010585,0.061279,-0.003239,0.066340,-0.949320,-0.308976,6937,40160,-2123,3478101,-49771731,-16199225
0.435003,435.003480,0.156610,0.011038,0.044495,0.066169,-0.950569,-0.306266,102636,7234,29160,3469142,-49837208,-16057148
0.435984,435.983880,-0.136041,0.162311,-0.099680,0.067509,-0.948994,-0.309438,-89156,106372,-65326,3539424,-49754600,-16223443
0.437013,437.013300,0.203497,-0.085667,-0.199338,0.065586,-0.950730,-0.305244,133364,-56143,-130638,3438609,-49845636,-16003563
0.437994,437.993700,0.154811,0.063843,-0.150319,0.066684,-0.948449,-0.308170,101457,41840,-98513,3496172,-49726053,-16156966
0.439023,439.023120,-0.037108,0.258897,0.191885,0.066082,-0.949506,-0.305262,-24319,169671,125754,3464580,-49781435,-16004526
0.440004,440.003520,-0.279457,0.058832,0.096109,0.064092,-0.947733,-0.307702,-183145,38556,62986,3360246,-49688501,-16132456
0.440984,440.983920,-0.089766,0.215968,-0.343521,0.062854,-0.948010,-0.303917,-58829,141537,-225130,3295341,-49703042,-15934029
0.442013,442.013340,-0.038452,-0.286403,-0.246544,0.063893,-0.950880,-0.309292,-25200,-187697,-161575,3349811,-49853494,-16215798
0.442994,442.993740,-0.135449,0.211095,-0.002545,0.068264,-0.946508,-0.308803,-88768,138343,-1668,3579016,-49624283,-16190171
0.444023,444.023160,0.009767,0.261769,-0.003519,0.062735,-0.951671,-0.306819,6401,171553,-2306,3289145,-49894957,-16086167
0.445004,445.003560,-0.037686,0.010976,-0.003181,0.066242,-0.947075,-0.306571,-24698,7193,-2085,3472963,-49654003,-16073124
0.445984,445.983960,0.011418,-0.338350,-0.100891,0.065095,-0.949445,-0.306843,7483,-221741,-66120,3412857,-49778281,-16087420
0.447013,447.013380,-0.038669,-0.136707,-0.197984,0.064017,-0.950951,-0.307068,-25342,-89592,-129751,3356312,-49857215,-16099205
0.447994,447.993780,-0.037723,0.409270,0.191609,0.063150,-0.950131,-0.305045,-24722,268219,125573,3310898,-49814217,-15993122
0.449023,449.023200,-0.135031,0.011278,-0.051236,0.067932,-0.950467,-0.305769,-88494,7391,-33578,3561615,-49831838,-16031077
0.450004,450.003600,-0.326132,0.005847,0.290981,0.064458,-0.951531,-0.306243,-213734,3832,190697,3379444,-49887647,-16055938
0.450984,450.984000,-0.232600,0.260847,-0.001898,0.066595,-0.949773,-0.304581,-152437,170949,-1244,3491497,-49795458,-15968811
0.452013,452.013420,0.107930,0.060980,0.044548,0.066427,-0.949588,-0.307388,70733,39964,29195,3482680,-49785765,-16115968
0.452994,452.993820,0.201675,0.166286,-0.297026,0.064116,-0.949139,-0.305459,132170,108977,-194659,3361499,-49762230,-16014836
0.454023,454.023240,-0.037491,0.060428,0.045518,0.065744,-0.951562,-0.308612,-24570,39602,29831,3446895,-49889251,-16180161
0.455004,455.003640,-0.038687,0.062439,-0.100591,0.066981,-0.950490,-0.309577,-25354,40920,-65923,3511732,-49833072,-16230748
0.455984,455.984040,0.059474,-0.138350,-0.052522,0.064617,-0.949023,-0.307831,38977,-90669,-34421,3387767,-49756111,-16139229
0.457013,457.013460,-0.231171,-0.090004,-0.001878,0.066998,-0.951030,-0.306539,-151500,-58985,-1231,3512612,-49861338,-16071474
0.457994,457.993860,0.106511,0.312259,-0.004167,0.070973,-0.949928,-0.308632,69803,204642,-2731,3721032,-49803592,-16181199
0.459023,459.023280,0.008200,-0.034267,-0.344423,0.061788,-0.948429,-0.307763,5374,-22457,-225721,3239474,-49725001,-16135639
0.460004,460.003680,-0.234779,0.115176,-0.342813,0.066240,-0.947593,-0.308828,-153865,75482,-224666,3472898,-49681170,-16191479
0.460984,460.984080,0.350113,-0.087123,-0.054469,0.062792,-0.946602,-0.304961,229450,-57097,-35697,3292123,-49629210,-15988725
0.462014,462.013500,-0.135634,0.062070,-0.099942,0.060773,-0.951460,-0.307141,-88889,40678,-65498,3186236,-49883931,-16103056
0.462994,462.993900,0.205888,-0.089687,0.092613,0.064977,-0.949328,-0.306924,134931,-58777,60695,3406659,-49772147,-16091636
0.464023,464.023320,0.012793,-0.091765,0.191315,0.065958,-0.949195,-0.305807,8384,-60139,125380,3458110,-49765150,-16033119
0.465004,465.003720,-0.038289,0.061913,-0.051888,0.065378,-0.947485,-0.308753,-25093,40575,-34005,3427683,-49675510,-16187555
0.465984,465.984120,-0.036314,0.257848,0.289023,0.067500,-0.948527,-0.311167,-23799,168983,189414,3538918,-49730114,-16314089
0.467014,467.013540,0.155214,-0.036108,-0.150581,0.066850,-0.948478,-0.305831,101721,-23664,-98685,3504863,-49727551,-16034329
0.467994,467.993940,0.108940,-0.089769,0.093260,0.069852,-0.951318,-0.309728,71395,-58831,61119,3662273,-49876482,-16238650
0.469023,469.023360,-0.134837,0.061015,-0.002536,0.067010,-0.948632,-0.305397,-88367,39987,-1662,3513242,-49735619,-16011579
0.470004,470.003760,-0.038484,0.012604,-0.100499,0.066741,-0.949107,-0.305326,-25221,8260,-65863,3499138,-49760522,-16007890
0.470984,470.984160,0.058250,0.162666,-0.052365,0.069077,-0.948337,-0.306684,38175,106605,-34318,3621633,-49720162,-16079052
0.472014,472.013580,0.057870,-0.035809,-0.198462,0.062672,-0.946845,-0.306547,37926,-23468,-130064,3285799,-49641967,-16071906
0.472994,472.993980,-0.135226,-0.037888,-0.099760,0.064953,-0.950824,-0.307657,-88622,-24830,-65379,3405431,-49850541,-16130112
0.474023,474.023400,0.107744,-0.087759,-0.052675,0.065977,-0.947704,-0.305509,70611,-57514,-34521,3459117,-49686977,-16017462
0.475004,475.003800,0.107930,0.061266,0.044722,0.066917,-0.948608,-0.309471,70733,40151,29309,3508371,-49734382,-16225195
0.475984,475.984200,0.206688,-0.090744,0.190193,0.067252,-0.947150,-0.308933,135455,-59470,124645,3525949,-49657949,-16197007
0.477014,477.013620,-0.086946,-0.087154,-0.148785,0.065423,-0.948075,-0.308920,-56981,-57117,-97508,3430061,-49706427,-16196291
0.477994,477.994020,0.253751,0.061147,0.092455,0.067873,-0.948899,-0.306309,166298,40073,60591,3558484,-49749610,-16059415
0.479023,479.023440,0.058659,0.062422,-0.052357,0.066363,-0.947706,-0.307805,38443,40909,-34313,3479355,-49687063,-16137846
0.480004,480.003840,-0.231551,-0.288194,-0.147803,0.067602,-0.949256,-0.306751,-151749,-188871,-96864,3544277,-49768379,-16082592
0.480984,480.984240,-0.037871,-0.137762,-0.100403,0.068651,-0.949213,-0.309275,-24819,-90284,-65800,3599285,-49766084,-16214903
0.482014,482.013660,-0.084961,0.009065,0.143427,0.066909,-0.944521,-0.307992,-55680,5941,93996,3507955,-49520099,-16147666
0.482994,482.994060,-0.233981,0.114120,-0.245232,0.067039,-0.948363,-0.307493,-153342,74790,-160715,3514783,-49721549,-16121513
0.484023,484.023480,-0.280432,-0.188135,-0.147484,0.070594,-0.951193,-0.310042,-183784,-123296,-96655,3701170,-49869889,-16255121
0.485004,485.003880,-0.132637,0.007539,0.241158,0.067663,-0.948319,-0.308201,-86925,4941,158045,3547484,-49719227,-16158588
0.485984,485.984280,-0.135022,-0.088010,-0.099759,0.064880,-0.951218,-0.307827,-88488,-57678,-65378,3401570,-49871194,-16138977
0.487014,487.013700,-0.034650,-0.441846,0.143129,0.067944,-0.952166,-0.309283,-22708,-289568,93801,3562202,-49920908,-16215331
0.487994,487.994100,0.155597,0.162363,-0.004309,0.065094,-0.950362,-0.310858,101972,106406,-2824,3412797,-49826317,-16297925
0.489024,489.023520,-0.039699,0.213760,-0.149126,0.068162,-0.949953,-0.305373,-26017,140090,-97731,3573667,-49804874,-16010341
0.490004,490.003920,0.158623,-0.191171,0.190523,0.065246,-0.948932,-0.306446,103955,-125286,124861,3420777,-49751389,-16066596
0.490984,490.984320,-0.086957,0.012418,-0.100089,0.065382,-0.947838,-0.308407,-56988,8138,-65594,3427913,-49694034,-16169404
0.492014,492.013740,-0.184924,0.262659,-0.099454,0.067447,-0.950290,-0.309892,-121192,172136,-65178,3536162,-49822578,-16247263
0.492994,492.994140,0.057637,0.313031,-0.052373,0.067602,-0.949694,-0.308221,37773,205148,-34323,3544276,-49791312,-16159655
0.494024,494.023560,-0.085555,-0.039714,0.046024,0.066695,-0.949115,-0.307937,-56069,-26027,30162,3496740,-49760936,-16144786
0.495004,495.003960,-0.278447,-0.091914,0.144728,0.065538,-0.947281,-0.306890,-182483,-60237,94849,3436087,-49664801,-16089884
0.495984,495.984360,-0.082947,-0.193433,0.289549,0.067151,-0.948288,-0.308832,-54360,-126768,189759,3520671,-49717592,-16191690
0.497014,497.013780,0.058449,0.013643,-0.149765,0.065204,-0.949215,-0.309096,38305,8941,-98150,3418554,-49766213,-16205533
0.497994,497.994180,0.109691,0.109378,0.190823,0.065690,-0.947602,-0.309623,71887,71682,125058,3444062,-49681640,-16233165
0.499024,499.023600,0.108299,0.061938,-0.003986,0.063357,-0.948806,-0.309024,70975,40592,-2612,3321739,-49744760,-16201735
0.500004,500.004000,-0.084184,-0.090504,0.094725,0.064874,-0.947486,-0.307056,-55171,-59313,62079,3401278,-49675549,-16098574
0.500984,500.984400,0.110109,-0.090439,0.142133,0.065412,-0.949597,-0.306569,72161,-59270,93148,3429495,-49786232,-16073031
0.502014,502.013820,-0.229207,-0.091727,0.144398,0.062440,-0.950662,-0.308780,-150213,-60114,94633,3273670,-49842071,-16188958
0.502994,502.994220,-0.229420,0.057967,0.193092,0.065764,-0.950469,-0.310060,-150353,37989,126545,3447928,-49831923,-16256060
0.504024,504.023640,0.158942,0.307367,0.385303,0.067446,-0.946474,-0.306826,104164,201436,252512,3536118,-49622484,-16086516
0.505004,505.004040,0.062628,-0.042513,0.288564,0.066535,-0.948722,-0.306904,41044,-27861,189113,3488343,-49740356,-16090631
0.505984,505.984440,0.157172,0.061452,0.044394,0.066826,-0.950729,-0.309740,103004,40273,29094,3503621,-49845587,-16239291
0.507014,507.013860,0.205257,-0.037265,-0.053329,0.067114,-0.950712,-0.305624,134517,-24422,-34950,3518682,-49844688,-16023504
0.507994,507.994260,-0.084184,-0.090504,0.094725,0.066485,-0.947859,-0.306655,-55171,-59313,62079,3485737,-49695084,-16077547
0.509024,509.023680,0.351865,0.060847,0.140504,0.067329,-0.946913,-0.308573,230598,39877,92081,3529957,-49645494,-16178137
0.510004,510.004080,-0.135246,-0.136116,-0.245869,0.065870,-0.945746,-0.306470,-88635,-89205,-161133,3453507,-49584347,-16067862
0.510984,510.984480,-0.182349,0.110284,0.046657,0.067303,-0.948092,-0.309224,-119504,72276,30577,3528604,-49707345,-16212228
0.512014,512.013900,0.108698,0.061267,0.044719,0.065818,-0.951327,-0.308806,71236,40152,29307,3450780,-49876935,-16190336
0.512994,512.994300,0.059436,-0.037148,-0.101060,0.065951,-0.946180,-0.307465,38952,-24345,-66231,3457746,-49607099,-16120008
0.514024,514.023720,0.108708,-0.038304,-0.003979,0.065785,-0.948220,-0.306546,71243,-25103,-2608,3449028,-49714032,-16071849
0.515004,515.004120,0.010962,-0.037332,-0.100737,0.065469,-0.948187,-0.307260,7184,-24466,-66019,3432453,-49712304,-16109266
0.515985,515.984520,0.062831,-0.092635,0.288565,0.067679,-0.947547,-0.311942,41177,-60709,189114,3548313,-49678775,-16354768
0.517014,517.013940,-0.229810,-0.040935,0.095692,0.066277,-0.949504,-0.305177,-150608,-26827,62713,3474812,-49781357,-16000071
0.517994,517.994340,0.061032,-0.039830,0.093750,0.067231,-0.944946,-0.307161,39998,-26103,61440,3524820,-49542384,-16104094
0.519024,519.023760,0.107510,-0.036292,-0.150089,0.066264,-0.949558,-0.309727,70458,-23784,-98362,3474142,-49784163,-16238597
0.520004,520.004160,-0.035321,0.008582,0.191801,0.065353,-0.948943,-0.310238,-23148,5624,125699,3426389,-49751920,-16265412
0.520985,520.984560,0.013170,-0.190381,0.094083,0.068222,-0.949256,-0.308839,8631,-124768,61658,3576794,-49768349,-16192046
0.522014,522.013980,-0.329134,-0.236168,-0.293271,0.063067,-0.950734,-0.309489,-215701,-154775,-192198,3306549,-49845842,-16226114
0.522994,522.994380,-0.134052,-0.137869,-0.099760,0.066043,-0.949863,-0.306450,-87852,-90354,-65379,3462580,-49800195,-16066787
0.524024,524.023800,-0.327547,-0.139278,-0.049762,0.062760,-0.945523,-0.310918,-214661,-91277,-32612,3290411,-49572657,-16301060
0.525004,525.004200,-0.277885,-0.041533,0.144720,0.066821,-0.949701,-0.307668,-182115,-27219,94844,3503328,-49791690,-16130672
0.525985,525.984600,-0.083582,-0.141039,0.143431,0.064957,-0.945571,-0.309682,-54776,-92431,93999,3405643,-49575173,-16236266
0.527014,527.014020,-0.133255,-0.139209,-0.002530,0.066788,-0.947628,-0.309383,-87330,-91232,-1658,3501596,-49682982,-16220590
0.527994,527.994420,0.011757,-0.038414,-0.003506,0.065666,-0.947944,-0.305994,7705,-25175,-2298,3442813,-49699576,-16042889
0.529024,529.023840,-0.085802,0.111583,-0.002867,0.067219,-0.944679,-0.309417,-56231,73127,-1879,3524219,-49528408,-16222338
0.530004,530.004240,-0.134081,0.160851,0.046155,0.067262,-0.947180,-0.306407,-87871,105415,30248,3526443,-49659530,-16064549
0.530985,530.984640,0.108083,0.211893,0.044534,0.067157,-0.951304,-0.306863,70833,138866,29186,3520979,-49875701,-16088464
0.532014,532.014060,-0.035909,-0.139513,0.045526,0.063607,-0.949225,-0.305908,-23533,-91431,29836,3334839,-49766723,-16038378
0.532994,532.994460,0.158191,-0.188898,0.044234,0.066733,-0.946252,-0.308493,103672,-123796,28989,3498752,-49610854,-16173938
0.534024,534.023880,-0.085588,-0.038112,-0.051562,0.067937,-0.948077,-0.307002,-56091,-24977,-33792,3561880,-49706519,-16095739
0.535004,535.004280,0.012157,-0.039084,0.045197,0.066007,-0.949980,-0.305854,7967,-25614,29620,3460668,-49806317,-16035547
0.535985,535.984680,-0.232401,-0.086102,-0.245399,0.066284,-0.947628,-0.307519,-152306,-56428,-160825,3475209,-49682983,-16122826
0.537014,537.014100,-0.376225,-0.089339,-0.049617,0.066131,-0.948104,-0.308515,-246563,-58549,-32517,3467149,-49707944,-16175085
0.537995,537.994500,-0.136484,0.264447,-0.197365,0.066361,-0.948225,-0.310454,-89446,173308,-129345,3479230,-49714306,-16276711
0.539024,539.023920,0.108704,-0.038046,-0.004153,0.065305,-0.948078,-0.309430,71240,-24934,-2722,3423838,-49706579,-16223060
0.540004,540.004320,-0.133469,0.010484,0.046164,0.065746,-0.949414,-0.311583,-87470,6871,30254,3446986,-49776618,-16335904
0.540985,540.984720,0.059637,-0.087010,-0.101234,0.068074,-0.949527,-0.306980,39084,-57023,-66345,3569013,-49782568,-16094602
0.542014,542.014140,0.110338,-0.439020,-0.004131,0.066392,-0.949784,-0.306995,72311,-287716,-2707,3480834,-49796016,-16095393
0.542995,542.994540,-0.086395,0.062802,-0.100272,0.064571,-0.952490,-0.311556,-56620,41158,-65714,3385373,-49937882,-16334519
0.544024,544.023960,0.011749,0.061159,0.045190,0.067476,-0.948590,-0.305942,7700,40081,29616,3537709,-49733413,-16040186
0.545004,545.004360,0.254915,0.060738,0.140977,0.062873,-0.950853,-0.308854,167061,39805,92391,3296376,-49852093,-16192862
0.545985,545.984760,-0.036929,0.111096,0.045511,0.066373,-0.951712,-0.308487,-24202,72808,29826,3479850,-49897097,-16173605
0.547014,547.014180,-0.133478,0.110057,0.094862,0.065115,-0.948391,-0.308289,-87476,72127,62169,3413926,-49722994,-16163228
0.547995,547.994580,-0.085219,0.259935,0.143234,0.068371,-0.949540,-0.312002,-55849,170351,93870,3584587,-49783264,-16357874
0.549024,549.024000,0.011163,-0.087195,-0.100909,0.064959,-0.948750,-0.309561,7316,-57144,-66132,3405742,-49741831,-16229915
0.550004,550.004400,-0.084760,-0.338716,-0.100249,0.070766,-0.951214,-0.304850,-55548,-221981,-65699,3710191,-49871005,-15982938
0.550985,550.984800,-0.373228,-0.144698,0.291309,0.063563,-0.949429,-0.307840,-244599,-94829,190912,3332547,-49777404,-16139681
0.552014,552.014220,0.060632,-0.039444,0.044872,0.066957,-0.951470,-0.308677,39736,-25850,29407,3510465,-49884410,-16183575
0.552995,552.994620,0.009950,0.113419,-0.149625,0.064527,-0.948399,-0.308570,6521,74330,-98058,3383072,-49723420,-16177956
0.554024,554.024040,0.012373,-0.189323,-0.003497,0.064108,-0.949147,-0.307753,8109,-124075,-2292,3361127,-49762637,-16135127
0.555004,555.004440,-0.135071,0.112193,-0.099776,0.067469,-0.952057,-0.310185,-88520,73527,-65389,3537319,-49915199,-16262645
0.555985,555.984840,-0.233818,0.164629,-0.293942,0.065673,-0.948534,-0.306151,-153235,107891,-192638,3443145,-49730490,-16051150
0.557014,557.014260,-0.084369,-0.239816,-0.002673,0.070684,-0.951497,-0.307347,-55292,-157166,-1752,3705901,-49885856,-16113833
0.557995,557.994660,0.209062,-0.193285,0.336304,0.066343,-0.948522,-0.305195,137011,-126671,220400,3478263,-49729858,-16001015
0.559024,559.024080,0.253722,0.062204,-0.004956,0.067552,-0.952488,-0.310657,166279,40766,-3248,3541687,-49937824,-16287371
0.560004,560.004480,0.059418,0.161711,-0.003667,0.065750,-0.948972,-0.308482,38940,105979,-2403,3447202,-49753443,-16173352
0.560985,560.984880,0.109106,-0.039262,0.044724,0.061241,-0.948554,-0.307953,71504,-25731,29310,3210773,-49731565,-16145610
0.562014,562.014300,-0.038734,0.262927,-0.100430,0.067110,-0.948092,-0.308539,-25385,172312,-65818,3518482,-49707314,-16176344
0.562995,562.994700,0.156998,-0.187433,-0.101700,0.065445,-0.949722,-0.308891,102890,-122836,-66650,3431211,-49792797,-16194769
0.564024,564.024120,-0.232407,0.012923,-0.196527,0.063902,-0.951904,-0.310396,-152310,8469,-128796,3350287,-49907207,-16273714
0.565005,565.004520,-0.038123,0.112561,-0.100423,0.065097,-0.946620,-0.307226,-24984,73768,-65813,3412972,-49630167,-16107507
0.565985,565.984920,-0.132880,0.158290,0.192441,0.064904,-0.949125,-0.304577,-87084,103737,126118,3402813,-49761503,-15968583
0.567014,567.014340,0.204636,0.212386,-0.004642,0.066228,-0.949514,-0.308377,134110,139189,-3042,3472280,-49781882,-16167831
0.567995,567.994740,-0.132463,-0.041524,0.143748,0.066973,-0.948908,-0.305950,-86811,-27213,94207,3511303,-49750121,-16040606
0.569024,569.024160,0.158769,0.058482,0.239206,0.065320,-0.948777,-0.307700,104051,38327,156766,3424644,-49743259,-16132340
0.570005,570.004560,0.011362,-0.038290,-0.052034,0.064299,-0.948196,-0.305998,7446,-25094,-34101,3371121,-49712761,-16043089
0.571034,571.033980,0.061841,-0.141032,0.142459,0.064155,-0.949458,-0.307322,40528,-92427,93362,3363546,-49778919,-16112536
0.572014,572.014380,0.111122,-0.241762,0.190843,0.064460,-0.951927,-0.307554,72825,-158441,125071,3379581,-49908375,-16124676
0.572995,572.994780,0.158174,0.009702,0.141803,0.062801,-0.951007,-0.308264,103661,6358,92932,3292592,-49860151,-16161897
0.574024,574.024200,-0.036702,-0.138718,-0.051704,0.066620,-0.949072,-0.306788,-24053,-90910,-33885,3492821,-49758683,-16084524
0.575005,575.004600,-0.135683,0.262558,-0.099783,0.067426,-0.948244,-0.308750,-88921,172070,-65394,3535061,-49715300,-16187411
0.576034,576.034020,-0.183330,-0.037685,-0.148145,0.069839,-0.949901,-0.308402,-120147,-24697,-97088,3661559,-49802152,-16169151
0.577014,577.014420,0.010973,-0.137192,-0.149434,0.065993,-0.951545,-0.304853,7191,-89910,-97933,3459924,-49888366,-15983065
0.577995,577.994820,-0.181540,0.009370,0.095367,0.069895,-0.950836,-0.306794,-118974,6141,62500,3664526,-49851214,-16084821
0.579024,579.024240,-0.034894,-0.290808,0.094412,0.064961,-0.945926,-0.310474,-22868,-190584,61874,3405824,-49593744,-16277773
0.580005,580.004640,0.251123,0.116637,-0.297177,0.066179,-0.950876,-0.305040,164576,76439,-194758,3469704,-49853298,-15992860
0.581034,581.034060,-0.137076,0.364430,-0.197194,0.063705,-0.949045,-0.311793,-89834,238833,-129233,3339952,-49757310,-16346954
0.582014,582.014460,0.059416,0.460045,0.191130,0.065885,-0.950066,-0.308034,38939,301495,125259,3454263,-49810805,-16149828
0.582995,582.994860,-0.084546,-0.190079,0.045943,0.067810,-0.950434,-0.307859,-55408,-124570,30109,3555200,-49830109,-16140672
0.584024,584.024280,-0.182108,-0.040079,0.046494,0.064351,-0.949852,-0.308940,-119346,-26266,30470,3373853,-49799606,-16197339
0.585005,585.004680,-0.181671,-0.439041,-0.099593,0.066180,-0.948053,-0.305618,-119060,-287730,-65269,3469728,-49705272,-16023187
0.586034,586.034100,-0.231584,0.011198,-0.050592,0.065897,-0.944884,-0.307631,-151771,7339,-33156,3454891,-49539155,-16128717
0.587014,587.014500,0.109328,0.009805,0.141954,0.068462,-0.951394,-0.303871,71649,6426,93031,3589401,-49880430,-15931601
0.587995,587.994900,-0.182915,0.060834,-0.002214,0.063705,-0.947135,-0.303763,-119875,39868,-1451,3340000,-49657164,-15925904
0.589024,589.024320,-0.279445,-0.139351,-0.050259,0.067993,-0.946469,-0.307640,-183137,-91325,-32938,3564794,-49622211,-16129172
0.590005,590.004720,0.058859,0.012976,-0.101237,0.065653,-0.950065,-0.306602,38574,8504,-66347,3442110,-49810776,-16074799
0.591034,591.034140,0.252753,0.013712,-0.102533,0.065467,-0.951449,-0.309204,165644,8986,-67196,3432349,-49883354,-16211173
0.592015,592.014540,-0.279454,-0.039778,-0.001561,0.062513,-0.946492,-0.306108,-183143,-26069,-1023,3277462,-49623430,-16048888
0.592995,592.994940,-0.087202,0.461505,0.045818,0.068916,-0.948343,-0.308227,-57149,302452,30027,3613209,-49720486,-16159993
0.594024,594.024360,-0.183723,0.161749,-0.050923,0.070397,-0.950043,-0.305632,-120405,106004,-33373,3690814,-49809608,-16023895
0.595005,595.004760,0.059630,0.310352,0.142261,0.067020,-0.950928,-0.311561,39079,203392,93232,3513763,-49856014,-16334763
0.596034,596.034180,-0.134636,0.011568,-0.051237,0.068082,-0.950592,-0.308820,-88235,7581,-33579,3569456,-49838397,-16191041
0.597015,597.014580,-0.133449,0.109128,0.143567,0.068220,-0.951922,-0.308245,-87457,71518,94088,3576667,-49908124,-16160899
0.597995,597.994980,0.008586,0.065596,-0.295729,0.066861,-0.949540,-0.306835,5627,42989,-193809,3505428,-49783255,-16086990
0.599024,599.024400,-0.133040,0.008884,0.143575,0.068016,-0.948752,-0.310020,-87189,5822,94093,3565975,-49741917,-16253951
0.600005,600.004800,0.253746,0.061821,0.043573,0.066875,-0.948452,-0.310181,166295,40515,28556,3506170,-49726221,-16262423
0.601034,601.034220,0.014384,-0.093488,0.337421,0.066157,-0.949866,-0.307715,9427,-61268,221132,3468526,-49800321,-16133110
0.602015,602.014620,0.059453,0.061755,-0.003833,0.065237,-0.947868,-0.305279,38963,40472,-2512,3420319,-49695566,-16005417
0.602995,602.995020,0.203241,0.463281,-0.004829,0.064831,-0.947411,-0.308083,133196,303616,-3165,3398994,-49671626,-16152446
0.604024,604.024440,0.395587,-0.031161,-0.444421,0.066916,-0.948091,-0.308000,259252,-20422,-291256,3508347,-49707295,-16148077
0.605005,605.004840,0.008977,0.164497,-0.198328,0.065508,-0.947630,-0.305195,5883,107805,-129976,3434491,-49683080,-16000994
0.606034,606.034260,-0.134842,0.061946,-0.051242,0.067062,-0.947743,-0.309579,-88370,40597,-33582,3515975,-49689029,-16230831
0.607015,607.014660,0.156595,0.111832,0.044218,0.064852,-0.946633,-0.309896,102626,73290,28979,3400126,-49630844,-16247481
0.607995,607.995060,0.109123,0.060184,0.141951,0.061809,-0.947334,-0.308701,71515,39442,93029,3240581,-49667572,-16184814
0.609024,609.024480,0.251732,0.115555,-0.199945,0.064621,-0.950211,-0.311215,164975,75730,-131036,3387978,-49818446,-16316648
0.610005,610.004880,-0.231009,-0.038663,-0.050591,0.065800,-0.953135,-0.309786,-151394,-25338,-33155,3449796,-49971743,-16241726
0.611034,611.034300,0.010757,0.013048,-0.100781,0.065061,-0.953218,-0.308171,7050,8551,-66048,3411094,-49976054,-16157029
0.612015,612.014700,-0.036121,0.010179,0.094489,0.065457,-0.954282,-0.311229,-23672,6671,61924,3431851,-50031879,-16317377
0.612995,612.995100,-0.082376,-0.242625,0.240935,0.065856,-0.951606,-0.310436,-53986,-159007,157899,3452745,-49891584,-16275793
0.614025,614.024520,0.061401,0.258473,0.288638,0.068800,-0.951485,-0.308276,40240,169393,189162,3607090,-49885199,-16162550
0.615005,615.004920,-0.036519,0.010849,0.045786,0.068137,-0.951729,-0.308361,-23933,7110,30006,3572321,-49897984,-16167001
0.616034,616.034340,0.107744,-0.384877,-0.296085,0.068105,-0.952158,-0.307695,70611,-252233,-194042,3570674,-49920520,-16132082
0.617015,617.014740,-0.134848,-0.136530,-0.197073,0.066822,-0.947115,-0.308619,-88374,-89476,-129154,3503377,-49656102,-16180548
0.617995,617.995140,0.110118,-0.189755,0.093527,0.067033,-0.944909,-0.306964,72167,-124358,61294,3514468,-49540466,-16093768
0.619025,619.024560,0.159175,-0.041219,0.239305,0.065734,-0.944614,-0.307799,104317,-27013,156831,3446337,-49524988,-16137557
0.620005,620.004960,0.158174,0.010245,0.141896,0.068367,-0.947356,-0.304103,103661,6714,92993,3584415,-49668725,-15943772
0.621034,621.034380,0.009746,0.164082,-0.149359,0.062191,-0.945907,-0.306142,6387,107533,-97884,3260616,-49592783,-16050635
0.622015,622.014780,0.109496,0.060182,0.142216,0.068637,-0.944097,-0.304650,71759,39441,93203,3598566,-49497849,-15972420
0.622995,622.995180,0.011955,0.011034,0.045461,0.066838,-0.948768,-0.310467,7835,7231,29793,3504245,-49742787,-16277433
0.624025,624.024600,0.206638,0.110002,0.190268,0.066334,-0.947377,-0.303212,135422,72091,124694,3477810,-49669845,-15897059
0.625005,625.005000,-0.082990,-0.092261,0.240927,0.066644,-0.953977,-0.306708,-54388,-60464,157894,3494074,-50015890,-16080319
0.626034,626.034420,0.058231,0.064693,-0.198380,0.065639,-0.946183,-0.307392,38162,42397,-130010,3441367,-49607239,-16116215
0.627015,627.014820,0.057431,0.066034,-0.295786,0.065163,-0.949177,-0.309140,37638,43276,-193846,3416422,-49764209,-16207835
0.627995,627.995220,0.059232,0.013229,-0.100970,0.067043,-0.952812,-0.311909,38818,8670,-66172,3514996,-49954813,-16353023
0.629025,629.024640,0.303827,-0.338043,-0.005164,0.063452,-0.950219,-0.309206,199116,-221540,-3384,3326698,-49818846,-16211310
0.630005,630.005040,0.250723,0.117563,-0.345787,0.063332,-0.949387,-0.306464,164314,77046,-226615,3320428,-49775243,-16067514
0.631034,631.034460,0.205431,0.211586,0.092857,0.062764,-0.948421,-0.308666,134631,138665,60855,3290634,-49724558,-16182990
0.632015,632.014860,0.109923,-0.239207,0.044829,0.064429,-0.950328,-0.310185,72039,-156767,29379,3377961,-49824562,-16262650
0.632995,632.995260,-0.132066,-0.041652,0.192545,0.065889,-0.950419,-0.307448,-86551,-27297,126186,3454490,-49829318,-16119112
0.634025,634.024680,0.013774,-0.241173,0.142882,0.067050,-0.946284,-0.307380,9027,-158055,93639,3515348,-49612532,-16115546
0.635005,635.005080,0.061246,-0.189526,0.045149,0.064550,-0.946705,-0.306651,40138,-124208,29589,3384291,-49634589,-16077358
0.636035,636.034500,0.111314,-0.192024,0.239638,0.068132,-0.948155,-0.307558,72951,-125845,157049,3572064,-49710621,-16124884
0.637015,637.014900,0.156190,-0.086232,-0.150316,0.064636,-0.947292,-0.306620,102361,-56513,-98511,3388808,-49665390,-16075705
0.637995,637.995300,-0.132434,-0.339958,-0.002251,0.066187,-0.949397,-0.308066,-86792,-222795,-1475,3470122,-49775742,-16151525
0.639025,639.024720,0.011955,0.010776,0.045462,0.064278,-0.947899,-0.310912,7835,7062,29794,3370014,-49697225,-16300717
0.640005,640.005120,-0.037093,-0.237331,-0.149191,0.066391,-0.946722,-0.306964,-24309,-155537,-97774,3480797,-49635515,-16093765
0.641035,641.034540,0.011740,0.160474,0.093977,0.067683,-0.949690,-0.307236,7694,105168,61589,3548521,-49791090,-16108006
0.642015,642.014940,-0.134877,0.161934,-0.051160,0.066479,-0.950409,-0.306661,-88393,106125,-33528,3485432,-49828798,-16077878
0.642995,642.995340,-0.036305,-0.139099,-0.003087,0.065561,-0.952147,-0.306851,-23793,-91160,-2023,3437291,-49919948,-16087825
0.644025,644.024760,0.011545,0.111021,0.045277,0.065607,-0.950351,-0.309712,7566,72759,29673,3439685,-49825775,-16237823
0.645005,645.005160,-0.084380,-0.139954,0.045940,0.067084,-0.951617,-0.306675,-55299,-91720,30107,3517134,-49892138,-16078582
0.646035,646.034580,-0.230627,0.159554,0.095595,0.064112,-0.952563,-0.308803,-151144,104565,62649,3361328,-49941722,-16190157
0.647015,647.014980,0.110303,-0.040985,0.190747,0.062680,-0.953239,-0.306282,72288,-26860,125008,3286212,-49977184,-16057997
0.647995,647.995380,-0.085168,-0.238187,-0.100165,0.067164,-0.948752,-0.306896,-55816,-156098,-65644,3521314,-49741922,-16090190
0.649025,649.024800,-0.035507,-0.140440,0.094318,0.065495,-0.947365,-0.308509,-23270,-92039,61812,3433818,-49669210,-16174755
0.650005,650.005200,0.061642,-0.190195,0.093674,0.065592,-0.948498,-0.307378,40398,-124646,61390,3438892,-49728615,-16115444
0.651035,651.034620,-0.181725,-0.139651,-0.002115,0.064680,-0.951582,-0.310870,-119095,-91522,-1386,3391118,-49890279,-16298535
0.652015,652.015020,-0.278284,-0.041118,0.095932,0.065153,-0.947994,-0.307690,-182376,-26947,62870,3415899,-49702204,-16131807
0.652995,652.995420,-0.182155,0.159737,0.095271,0.063082,-0.948492,-0.307711,-119377,104685,62437,3307302,-49728279,-16132925
0.654025,654.024840,0.011369,-0.137575,-0.100818,0.064845,-0.947992,-0.305519,7451,-90161,-66072,3399745,-49702093,-16017975
0.655005,655.005240,-0.135880,0.213396,-0.148569,0.065372,-0.947133,-0.308788,-89050,139851,-97366,3427365,-49657057,-16189372
0.656035,656.034660,0.158163,0.109563,0.190414,0.065486,-0.949124,-0.305889,103654,71803,124790,3433328,-49761408,-16037392
0.657015,657.015060,0.009961,0.014133,-0.198233,0.063722,-0.949743,-0.308600,6528,9262,-129914,3340857,-49793874,-16179507
0.657995,657.995460,-0.036121,0.009924,0.094310,0.063923,-0.950212,-0.308763,-23672,6504,61807,3351422,-49818461,-16188086
0.659025,659.024880,-0.231007,-0.038921,-0.050502,0.065046,-0.949496,-0.310011,-151393,-25507,-33097,3410292,-49780921,-16253500
0.660005,660.005280,0.061818,0.058401,0.239767,0.068002,-0.949998,-0.306755,40513,38274,157134,3565249,-49807259,-16082781
0.661035,661.034700,-0.037112,-0.038185,-0.051796,0.066383,-0.948997,-0.306593,-24322,-25025,-33945,3480369,-49754781,-16074302
0.662015,662.015100,-0.036906,-0.088594,-0.051793,0.067580,-0.947568,-0.306127,-24187,-58061,-33943,3543149,-49679863,-16049857
0.662996,662.995500,0.447227,-0.035962,-0.103737,0.066618,-0.949988,-0.310478,293095,-23568,-67985,3492721,-49806735,-16277963
0.664025,664.024920,0.061041,-0.139690,0.044968,0.066702,-0.946642,-0.307501,40004,-91547,29470,3497090,-49631290,-16121927
0.665005,665.005320,0.204839,0.162263,-0.004723,0.066141,-0.945508,-0.306777,134243,106341,-3095,3467674,-49571862,-16083935
0.666035,666.034740,0.012344,0.109393,0.142683,0.065149,-0.947919,-0.308163,8090,71692,93509,3415685,-49698243,-16156633
0.667015,667.015140,0.012752,0.009149,0.142690,0.068144,-0.949295,-0.308361,8357,5996,93513,3572715,-49770413,-16166983
0.667996,667.995540,0.109273,0.308910,0.239342,0.069846,-0.953074,-0.306347,71613,202447,156855,3661924,-49968536,-16061418
0.669025,669.024960,-0.034914,-0.091946,0.191634,0.065296,-0.950074,-0.307640,-22881,-60258,125589,3423416,-49811214,-16129192
0.670005,670.005360,-0.035934,0.158662,0.191618,0.063269,-0.950128,-0.304809,-23550,103981,125579,3317111,-49814086,-15980763
0.671035,671.034780,-0.135257,-0.036829,-0.197348,0.065729,-0.947521,-0.308831,-88642,-24136,-129334,3446113,-49677412,-16191613
0.672015,672.015180,0.061226,0.009337,0.142276,0.066378,-0.951905,-0.307703,40125,6119,93242,3480123,-49907225,-16132507
0.672996,672.995580,0.252737,-0.085478,-0.199934,0.063843,-0.950016,-0.308682,165634,-56019,-131029,3347195,-49808214,-16183815
0.674025,674.025000,-0.084779,-0.139571,-0.002853,0.062125,-0.949991,-0.306478,-55561,-91469,-1870,3257165,-49806881,-16068279
0.675005,675.005400,0.157181,-0.038405,-0.004477,0.065158,-0.951131,-0.306395,103010,-25169,-2934,3416133,-49866635,-16063918
0.676035,676.034820,-0.035127,0.057748,0.240326,0.066385,-0.949512,-0.308103,-23021,37846,157500,3480491,-49781771,-16153494
0.677015,677.015220,0.058832,0.013359,-0.149942,0.062180,-0.951566,-0.308637,38556,8755,-98266,3260022,-49889446,-16181443
0.677996,677.995620,0.062860,-0.391638,0.142299,0.069181,-0.947753,-0.309087,41196,-256664,93257,3627082,-49689566,-16205070
0.679025,679.025040,0.060019,0.110921,0.044864,0.065608,-0.946971,-0.308432,39334,72693,29402,3439725,-49648550,-16170738
0.680005,680.005440,-0.182729,-0.088475,-0.099615,0.067856,-0.950585,-0.306215,-119753,-57983,-65284,3557610,-49838055,-16054485
0.681035,681.034860,0.058414,0.213174,-0.101251,0.064970,-0.949256,-0.308707,38282,139706,-66356,3406323,-49768336,-16185147
0.682015,682.015260,-0.033911,-0.143410,0.289041,0.064185,-0.946524,-0.310334,-22224,-93985,189426,3365149,-49625107,-16270443
0.682996,682.995660,0.111099,-0.042613,0.288065,0.064429,-0.951720,-0.304396,72810,-27927,188786,3377930,-49897551,-15959107
0.684025,684.025080,0.107704,0.012871,-0.101562,0.064639,-0.946892,-0.304680,70585,8435,-66560,3388949,-49644409,-15974018
0.685005,685.005480,-0.231630,0.210730,-0.001901,0.067348,-0.948085,-0.307685,-151801,138104,-1246,3530998,-49706964,-16131564
0.686035,686.034900,-0.231601,-0.087988,-0.147993,0.067287,-0.949262,-0.307347,-151782,-57664,-96989,3527755,-49768665,-16113818
0.687015,687.015300,-0.134283,0.210428,0.046153,0.067273,-0.951781,-0.309559,-88004,137906,30247,3527057,-49900730,-16229797
0.687996,687.995700,-0.086189,0.012135,-0.100269,0.060292,-0.947302,-0.305705,-56485,7953,-65712,3161048,-49665902,-16027723
0.689025,689.025120,-0.183936,0.013109,-0.197028,0.067359,-0.949148,-0.308689,-120544,8591,-129124,3531560,-49762682,-16184212
0.690006,690.005520,0.351082,-0.136407,-0.054471,0.065905,-0.948335,-0.306828,230085,-89396,-35698,3455312,-49720089,-16086646
0.691035,691.034940,-0.035919,-0.039650,0.094223,0.060529,-0.945071,-0.308242,-23540,-25985,61750,3173467,-49548920,-16160732
0.692015,692.015340,-0.232420,0.113332,-0.148006,0.068391,-0.949798,-0.307228,-152319,74273,-96997,3585640,-49796755,-16107611
0.692996,692.995740,-0.230426,0.109978,0.095509,0.067122,-0.948795,-0.307499,-151012,72075,62593,3519110,-49744179,-16121815
0.694025,694.025160,-0.132272,0.008762,0.192274,0.066433,-0.947952,-0.310972,-86686,5742,126009,3483024,-49699962,-16303907
0.695006,695.005560,0.108304,-0.037086,-0.052856,0.065277,-0.946118,-0.309881,70978,-24305,-34640,3422378,-49603821,-16246694
0.696035,696.034980,-0.037123,0.061932,-0.003014,0.066978,-0.952800,-0.307593,-24329,40588,-1975,3511568,-49954144,-16126750
0.697015,697.015380,-0.279083,-0.039232,-0.001389,0.061613,-0.950478,-0.309574,-182900,-25711,-910,3230271,-49832441,-16230581
0.697996,697.995780,-0.130859,-0.142947,0.289865,0.065578,-0.950341,-0.306539,-85760,-93682,189966,3438160,-49825248,-16071457
0.699025,699.025200,0.012157,-0.038797,0.045372,0.066457,-0.949358,-0.309287,7967,-25426,29735,3484267,-49773722,-16215559
0.700006,700.005600,0.060242,-0.137515,-0.052353,0.065003,-0.948864,-0.308538,39480,-90122,-34310,3408036,-49747800,-16176300
0.701035,701.035020,0.011136,0.211812,0.045357,0.068383,-0.949289,-0.306979,7298,138813,29725,3585237,-49770061,-16094541
0.702015,702.015420,0.010970,-0.136359,-0.149434,0.067697,-0.947767,-0.307001,7189,-89364,-97933,3549268,-49690270,-16095702
0.702996,702.995820,0.013557,-0.090932,0.191484,0.067233,-0.949039,-0.310192,8885,-59593,125491,3524954,-49756956,-16262975
0.704025,704.025240,0.158182,-0.089037,0.093106,0.067874,-0.946074,-0.306070,103666,-58351,61018,3558538,-49601525,-16046893
0.705006,705.005640,0.205458,-0.086841,-0.053326,0.065119,-0.948388,-0.307190,134649,-56912,-34948,3414089,-49722821,-16105628
0.706035,706.035060,-0.134470,0.062234,-0.051070,0.067358,-0.948791,-0.306825,-88126,40786,-33469,3531516,-49743950,-16086473
0.707015,707.015460,-0.231827,0.162109,-0.050427,0.067406,-0.949179,-0.305683,-151930,106240,-33048,3534027,-49764293,-16026612
0.707996,707.995860,-0.230824,0.110646,0.046982,0.066141,-0.951910,-0.308026,-151273,72513,30790,3467716,-49907473,-16149420
0.709025,709.025280,0.061224,0.010167,0.142451,0.064787,-0.947257,-0.308244,40124,6663,93357,3396701,-49663552,-16160876
0.710006,710.005680,0.011165,-0.086906,-0.100734,0.069799,-0.947436,-0.309834,7317,-56955,-66017,3659495,-49672944,-16244250
0.711035,711.035100,-0.085402,0.111198,0.046010,0.066675,-0.948459,-0.310736,-55969,72875,30153,3495709,-49726547,-16291527
0.712016,712.015500,-0.180930,-0.140448,0.095375,0.065052,-0.946786,-0.309101,-118574,-92044,62505,3410614,-49638839,-16205807
0.712996,712.995900,-0.084595,0.010284,0.094719,0.067217,-0.952872,-0.306446,-55440,6740,62075,3524110,-49957939,-16066582
0.714025,714.025320,0.011758,-0.038126,-0.003331,0.066562,-0.947660,-0.306137,7706,-24986,-2183,3489775,-49684670,-16050404
0.715006,715.005720,-0.036530,0.110712,0.094389,0.067230,-0.951586,-0.309354,-23940,72556,61859,3524794,-49890537,-16219058
0.716035,716.035140,-0.133458,-0.088800,-0.002357,0.065274,-0.948069,-0.306508,-87463,-58196,-1545,3422220,-49706117,-16069840
0.717016,717.015540,-0.232030,0.212231,-0.050430,0.068498,-0.949011,-0.307093,-152063,139088,-33050,3591270,-49755523,-16100512
0.717996,717.995940,-0.034914,-0.091405,0.191808,0.067639,-0.949456,-0.307857,-22881,-59903,125703,3546253,-49778840,-16140558
0.719025,719.025360,-0.035489,-0.339331,-0.002991,0.071242,-0.948817,-0.305968,-23258,-222384,-1960,3735118,-49745332,-16041557
0.720006,720.005760,0.155576,0.064392,-0.150418,0.060954,-0.950638,-0.308082,101958,42200,-98578,3195760,-49840789,-16152376
0.721035,721.035180,0.158786,-0.140118,0.141812,0.065241,-0.951244,-0.305649,104062,-91828,92938,3420491,-49872583,-16024810
0.722016,722.015580,0.013976,-0.291037,0.142792,0.067235,-0.948201,-0.306580,9159,-190734,93580,3525066,-49713042,-16073624
0.722996,722.995980,-0.037715,0.012863,-0.100417,0.067470,-0.951062,-0.306304,-24717,8430,-65809,3537346,-49863033,-16059129
0.724025,724.025400,0.208455,-0.141946,0.287598,0.067188,-0.950477,-0.306337,136613,-93026,188480,3522562,-49832359,-16060857
0.725006,725.005800,0.061040,-0.139145,0.045053,0.067933,-0.947643,-0.306567,40003,-91190,29526,3561663,-49683789,-16072948
0.726035,726.035220,-0.229420,0.058224,0.193092,0.067236,-0.951700,-0.308490,-150353,38158,126545,3525093,-49896482,-16173751
0.727016,727.015620,0.108289,0.161769,0.044711,0.066111,-0.949197,-0.306879,70968,106017,29302,3466131,-49765258,-16089296
0.727996,727.996020,-0.180939,-0.041165,0.144072,0.067961,-0.953142,-0.308269,-118580,-26978,94419,3563095,-49972103,-16162149
0.729025,729.025440,-0.083592,-0.041466,0.192128,0.065189,-0.950979,-0.308414,-54783,-27175,125913,3417794,-49858700,-16169787
0.730006,730.005840,0.058218,0.164267,-0.149776,0.065591,-0.948698,-0.308339,38154,107654,-98157,3438838,-49739100,-16165831
0.731035,731.035260,-0.035712,-0.090063,0.094402,0.068550,-0.950191,-0.308063,-23404,-59024,61867,3593970,-49817385,-16151397
0.732016,732.015660,0.012352,0.010364,0.094072,0.067131,-0.952284,-0.306956,8095,6792,61651,3519608,-49927132,-16093360
0.732996,732.996060,-0.135072,0.112738,-0.099776,0.066597,-0.947346,-0.307007,-88521,73884,-65389,3491582,-49668240,-16096011
0.734025,734.025480,0.106674,0.363597,-0.052705,0.061930,-0.946972,-0.306836,69910,238287,-34541,3246909,-49648583,-16087019
0.735006,735.005880,0.062015,0.108110,0.288554,0.063633,-0.946097,-0.309890,40642,70851,189107,3336176,-49602753,-16247146
0.736035,736.035300,-0.083972,-0.239941,0.046030,0.067949,-0.948860,-0.307011,-55032,-157248,30166,3562460,-49747605,-16096208
0.737016,737.015700,-0.179120,-0.293114,0.241492,0.064730,-0.948031,-0.305280,-117388,-192095,158264,3393742,-49704114,-16005478
0.737996,737.996100,-0.134052,-0.137871,-0.099759,0.066629,-0.946398,-0.305165,-87852,-90355,-65378,3493296,-49618518,-15999413
0.739026,739.025520,0.157588,-0.138106,-0.004297,0.066605,-0.951035,-0.307091,103277,-90509,-2816,3492041,-49861636,-16100420
0.740006,740.005920,-0.182526,-0.138054,-0.099437,0.066377,-0.949282,-0.309994,-119620,-90475,-65167,3480059,-49769720,-16252625
0.741035,741.035340,0.107890,0.162439,-0.003990,0.064399,-0.947337,-0.307685,70707,106456,-2615,3376386,-49667741,-16131570
0.742016,742.015740,0.205469,-0.186703,-0.102025,0.066956,-0.947613,-0.305694,134656,-122358,-66863,3510433,-49682208,-16027179
0.742996,742.996140,0.060631,-0.038902,0.045047,0.065843,-0.950030,-0.308473,39735,-25495,29522,3452052,-49808908,-16172863
0.744026,744.025560,-0.084584,-0.089577,0.046022,0.067792,-0.946158,-0.307971,-55433,-58705,30161,3554246,-49605943,-16146529
0.745006,745.005960,-0.183340,0.062431,-0.099448,0.067243,-0.948829,-0.306747,-120154,40915,-65174,3525470,-49745984,-16082400
0.746035,746.035380,0.059639,-0.087012,-0.101057,0.066926,-0.948598,-0.306904,39085,-57024,-66229,3508851,-49733871,-16090634
0.747016,747.015780,0.062042,-0.190608,0.142462,0.065649,-0.946730,-0.306649,40660,-124917,93364,3441878,-49635895,-16077222
0.747996,747.996180,-0.228595,-0.241835,0.144408,0.070033,-0.947076,-0.309076,-149812,-158489,94639,3671753,-49654083,-16204493
0.749026,749.025600,0.061235,-0.089694,0.093753,0.070566,-0.948636,-0.307869,40131,-58782,61442,3699707,-49735845,-16141208
0.750006,750.006000,0.062636,-0.141827,0.239867,0.069493,-0.947194,-0.306788,41049,-92948,157199,3643436,-49660224,-16084502
0.751035,751.035420,0.059630,0.012561,-0.052361,0.064599,-0.947729,-0.307971,39079,8232,-34315,3386831,-49688269,-16146554
0.752016,752.015820,0.203639,0.164821,-0.150835,0.070114,-0.950492,-0.309833,133457,108017,-98851,3676000,-49833173,-16244158
0.752996,752.996220,-0.278110,0.207736,0.241937,0.066074,-0.949315,-0.306600,-182262,136142,158556,3464157,-49771434,-16074653
0.754026,754.025640,0.011340,0.161403,0.045184,0.063338,-0.950057,-0.307341,7432,105777,29612,3320747,-49810357,-16113524
0.755006,755.006040,-0.085793,0.012010,-0.051566,0.065040,-0.949661,-0.312624,-56225,7871,-33794,3409970,-49789603,-16390499
0.756035,756.035460,0.010745,0.112622,-0.052219,0.070286,-0.950753,-0.306196,7042,73808,-34222,3685009,-49846834,-16053510
0.757016,757.015860,0.205263,-0.136578,-0.102202,0.063470,-0.945110,-0.307150,134521,-89508,-66979,3327657,-49551006,-16103485
0.757996,757.996260,-0.034924,0.008170,0.240331,0.065897,-0.950331,-0.304638,-22888,5354,157503,3454911,-49824698,-15971802
0.759026,759.025680,-0.036131,0.109755,0.142918,0.068350,-0.947056,-0.308336,-23679,71929,93663,3583509,-49652997,-16165677
0.760006,760.006080,0.011748,0.061159,0.045190,0.066927,-0.948875,-0.307423,7699,40081,29616,3508906,-49748394,-16117801
0.761035,761.035500,0.205856,-0.087798,-0.004799,0.062728,-0.949054,-0.310143,134910,-57539,-3145,3288771,-49757739,-16260449
0.762016,762.015900,-0.131648,-0.241466,0.143585,0.061890,-0.950312,-0.307873,-86277,-158247,94100,3244825,-49823721,-16141430
0.762996,762.996300,-0.327150,-0.139948,-0.001234,0.063181,-0.950417,-0.308934,-214401,-91716,-809,3312506,-49829242,-16197039
0.764026,764.025720,-0.231252,0.409749,0.144196,0.064827,-0.950397,-0.308883,-151553,268533,94500,3398776,-49828174,-16194360
0.765006,765.006120,0.160379,-0.142799,0.336449,0.065493,-0.955875,-0.306624,105106,-93585,220495,3433725,-50115389,-16075947
0.766036,766.035540,0.010347,0.113293,-0.100922,0.065177,-0.946498,-0.305778,6781,74248,-66140,3417164,-49623730,-16031590
0.767016,767.015940,0.010172,-0.135304,-0.247015,0.071446,-0.947056,-0.308031,6666,-88673,-161884,3745839,-49653002,-16149700
0.767996,767.996340,0.060017,0.111465,0.044864,0.064763,-0.948275,-0.307855,39333,73050,29402,3395440,-49716937,-16140453
0.769026,769.025760,0.012555,-0.039755,0.093900,0.067428,-0.947645,-0.305138,8228,-26054,61538,3535150,-49683890,-15998005
0.770006,770.006160,0.059842,-0.137131,-0.101230,0.065786,-0.951559,-0.307737,39218,-89870,-66342,3449066,-49889079,-16134291
0.771036,771.035580,0.158589,-0.189568,0.092937,0.068714,-0.948313,-0.310043,103933,-124235,60907,3602569,-49718888,-16255202
0.772016,772.015980,0.012157,-0.039084,0.045197,0.068062,-0.952163,-0.309313,7967,-25614,29620,3568401,-49920770,-16216893
0.772996,772.996380,0.013966,-0.191461,0.191313,0.064195,-0.949852,-0.308198,9153,-125476,125379,3365693,-49799624,-16158448
0.774026,774.025800,0.154166,0.215555,-0.248007,0.064701,-0.949532,-0.308111,101034,141266,-162534,3392192,-49782825,-16153877
0.775006,775.006200,-0.037317,0.011649,-0.051889,0.067862,-0.945887,-0.309421,-24456,7634,-34006,3557914,-49591739,-16222557
0.776036,776.035620,0.059027,0.062810,-0.101242,0.065433,-0.944684,-0.304476,38684,41163,-66350,3430563,-49528667,-15963286
0.777016,777.016020,0.107909,-0.037248,-0.101561,0.065160,-0.951088,-0.305797,70719,-24411,-66559,3416244,-49864423,-16032549
0.777996,777.996420,0.009949,0.113417,-0.149625,0.065246,-0.946904,-0.310561,6520,74329,-98058,3420788,-49645052,-16282332
0.779026,779.025840,0.109496,0.059642,0.141949,0.062745,-0.946611,-0.307488,71759,39087,93028,3289638,-49629672,-16121248
0.780006,780.006240,-0.036139,0.208784,0.191615,0.063673,-0.944782,-0.303500,-23684,136829,125577,3338311,-49533777,-15912148
0.781036,781.035660,0.157162,0.160739,0.093005,0.066470,-0.947356,-0.309214,102998,105342,60952,3484961,-49668753,-16211734
0.782016,782.016060,0.059827,0.061469,-0.003746,0.067861,-0.948592,-0.308273,39208,40284,-2455,3557865,-49733531,-16162409
0.782996,782.996460,0.110342,-0.439565,-0.004042,0.066249,-0.948260,-0.308680,72314,-288073,-2649,3473348,-49716123,-16183698
0.784026,784.025880,-0.231006,-0.039209,-0.050500,0.065426,-0.948151,-0.308209,-151392,-25696,-33096,3430212,-49710398,-16159027
0.785006,785.006280,0.109506,-0.039932,0.093341,0.064178,-0.948638,-0.308462,71766,-26170,61172,3364769,-49735935,-16172287
0.786036,786.035700,-0.180743,0.007744,0.192686,0.065185,-0.947842,-0.308879,-118452,5075,126279,3417562,-49694211,-16194132
0.787016,787.016100,0.056819,0.215855,-0.295975,0.063000,-0.951558,-0.308947,37237,141463,-193970,3303011,-49889024,-16197740
0.787996,787.996500,0.011546,0.110735,0.045277,0.068267,-0.949884,-0.309045,7567,72571,29673,3579162,-49801296,-16202883
0.789026,789.025920,-0.036517,0.010307,0.045605,0.066068,-0.952342,-0.308345,-23932,6755,29888,3463876,-49930149,-16166139
0.790006,790.006320,-0.282895,0.215237,-0.342412,0.062151,-0.945988,-0.306618,-185398,141058,-224403,3258499,-49597016,-16075597
0.791036,791.035740,0.109886,0.158543,0.239438,0.068279,-0.950071,-0.306194,72015,103903,156918,3579769,-49811082,-16053362
0.792016,792.016140,-0.037909,-0.037132,-0.149203,0.064432,-0.949887,-0.307476,-24844,-24335,-97782,3378115,-49801437,-16120608
0.793046,793.045560,-0.376808,-0.238239,-0.195630,0.064054,-0.948288,-0.309077,-246945,-156132,-128208,3358263,-49717602,-16204547
0.794026,794.025960,0.107510,-0.036580,-0.150174,0.065575,-0.947600,-0.308385,70458,-23973,-98418,3438022,-49681527,-16168231
0.795006,795.006360,-0.137445,-0.082928,-0.489474,0.067226,-0.947892,-0.307784,-90076,-54348,-320782,3524601,-49696816,-16136757
0.796036,796.035780,0.203252,0.065372,-0.248235,0.068301,-0.946271,-0.308544,133203,42842,-162683,3580940,-49611856,-16176616
0.797016,797.016180,-0.037297,-0.187497,-0.149194,0.065900,-0.951243,-0.308000,-24443,-122878,-97776,3455048,-49872519,-16148077
0.798046,798.045600,0.108095,0.111774,-0.004073,0.066798,-0.948810,-0.311360,70841,73252,-2669,3502113,-49744965,-16324250
0.799026,799.026000,0.058424,0.113602,-0.149860,0.064579,-0.949499,-0.309647,38289,74450,-98212,3385786,-49781072,-16234433
0.800006,800.006400,-0.084991,0.010123,0.045930,0.063995,-0.949264,-0.307600,-55700,6634,30101,3355158,-49768748,-16127086
0.801036,801.035820,-0.085994,0.061586,-0.051479,0.067473,-0.954279,-0.306311,-56357,40361,-33737,3537527,-50031683,-16059513
0.802016,802.016220,-0.135471,0.113153,-0.148564,0.066348,-0.950226,-0.310611,-88782,74156,-97363,3478561,-49819185,-16284940
0.803046,803.045640,-0.085400,0.110654,0.045924,0.066342,-0.951504,-0.305685,-55968,72518,30097,3478213,-49886227,-16026700
0.804026,804.026040,-0.180521,-0.241237,0.095294,0.065520,-0.946861,-0.310686,-118306,-158097,62452,3435155,-49642796,-16288895
0.805006,805.006440,-0.037892,0.062056,-0.051799,0.063062,-0.947279,-0.309245,-24833,40669,-33947,3306272,-49664702,-16213363
0.806036,806.035860,-0.230571,-0.139838,-0.001790,0.068754,-0.950736,-0.307714,-151107,-91644,-1173,3604702,-49845933,-16133090
0.807016,807.016260,-0.085966,0.061201,-0.002773,0.066079,-0.950263,-0.309108,-56339,40109,-1817,3464460,-49821151,-16206148
0.808046,808.045680,-0.134236,0.010896,-0.002446,0.063215,-0.949786,-0.308367,-87973,7141,-1603,3314303,-49796120,-16167286
0.809026,809.026080,0.012605,-0.239832,0.045386,0.064442,-0.950673,-0.308331,8261,-157176,29744,3378596,-49842645,-16165450
0.810006,810.006480,-0.180685,-0.291362,0.095386,0.066027,-0.948805,-0.307107,-118414,-190947,62512,3461741,-49744716,-16101250
0.811036,811.035900,-0.279434,-0.238925,-0.098781,0.067975,-0.951338,-0.308831,-183130,-156582,-64737,3563840,-49877491,-16191657
0.812016,812.016300,0.156207,0.012669,-0.053006,0.066879,-0.950832,-0.305905,102372,8303,-34738,3506408,-49850994,-16038206
0.813046,813.045720,-0.084955,-0.089835,0.046024,0.065433,-0.948661,-0.308058,-55676,-58874,30162,3430554,-49737137,-16151122
0.814026,814.026120,-0.037112,0.259860,0.143086,0.064885,-0.949104,-0.309571,-24322,170302,93773,3401844,-49760382,-16230457
0.815007,815.006520,0.010387,0.012788,-0.100737,0.064542,-0.949377,-0.307800,6807,8381,-66019,3383841,-49774696,-16137590
0.816036,816.035940,0.059055,0.062424,-0.052362,0.066866,-0.949971,-0.306332,38702,40910,-34316,3505694,-49805863,-16060606
0.817016,817.016340,0.154797,0.164377,-0.150421,0.063363,-0.949753,-0.310229,101448,107726,-98580,3322063,-49794392,-16264914
0.818046,818.045760,0.203677,0.064316,-0.150740,0.067902,-0.948709,-0.308086,133482,42150,-98789,3559996,-49739664,-16152592
0.819026,819.026160,-0.038893,0.113518,-0.149123,0.067473,-0.949308,-0.309838,-25489,74395,-97729,3537516,-49771105,-16244447
0.820007,820.006560,0.011166,0.210593,0.094063,0.066743,-0.949262,-0.305215,7318,138014,61645,3499260,-49768679,-16002044
0.821036,821.035980,0.012781,0.008765,0.191479,0.064632,-0.950477,-0.308727,8376,5744,125488,3388574,-49832368,-16186211
0.822016,822.016380,-0.228362,-0.292886,0.193115,0.063765,-0.949896,-0.307894,-149659,-191946,126560,3343124,-49801920,-16142527
0.823046,823.045800,0.207083,-0.090742,0.190190,0.066514,-0.947629,-0.309027,135714,-59469,124643,3487223,-49683076,-16201915
0.824026,824.026200,0.108540,-0.088428,-0.003973,0.065678,-0.952066,-0.306682,71133,-57952,-2604,3443413,-49915693,-16078974
0.825007,825.006600,0.060457,0.010291,0.093750,0.068981,-0.951019,-0.310798,39621,6744,61440,3616606,-49860788,-16294744
0.826036,826.036020,-0.183905,0.012721,-0.148146,0.065627,-0.954465,-0.307943,-120524,8337,-97089,3440736,-50041445,-16145106
0.827016,827.016420,0.012595,-0.140259,0.094081,0.064434,-0.947500,-0.309472,8254,-91920,61657,3378185,-49676264,-16225249
0.828046,828.045840,-0.377216,0.160339,-0.000751,0.065413,-0.949993,-0.307563,-247212,105080,-492,3429517,-49806974,-16125183
0.829026,829.026240,-0.085985,0.260347,0.094707,0.065559,-0.949962,-0.310687,-56351,170621,62067,3437187,-49805364,-16288934
0.830007,830.006640,0.010796,-0.087741,-0.100732,0.065055,-0.946185,-0.305849,7075,-57502,-66016,3410761,-49607341,-16035312
0.831036,831.036060,-0.084953,-0.090121,0.046024,0.066796,-0.947817,-0.307362,-55675,-59062,30162,3502008,-49692893,-16114617
0.832016,832.016460,0.203096,-0.084325,-0.296838,0.068976,-0.948996,-0.304119,133101,-55263,-194536,3616344,-49754706,-15944572
0.833046,833.045880,-0.084778,-0.139572,-0.002678,0.065678,-0.946937,-0.310084,-55560,-91470,-1755,3443431,-49646766,-16257320
0.834026,834.026280,0.010155,0.063293,-0.149446,0.062534,-0.948139,-0.305851,6655,41480,-97941,3278579,-49709778,-16035390
0.835007,835.006680,-0.179701,-0.442012,0.095392,0.065192,-0.947794,-0.306500,-117769,-289677,62516,3417920,-49691719,-16069428
0.836036,836.036100,0.301823,-0.235660,-0.200075,0.066529,-0.951033,-0.306182,197803,-154442,-131121,3488046,-49861513,-16052759
0.837017,837.016500,0.014174,-0.242130,0.191492,0.067741,-0.951856,-0.310576,9289,-158682,125496,3551570,-49904683,-16283145
0.838046,838.045920,-0.183145,0.111339,-0.050749,0.068779,-0.948960,-0.304911,-120026,72967,-33259,3606000,-49752844,-15986094
0.839026,839.026320,0.060838,-0.089569,0.045050,0.067143,-0.950164,-0.306880,39871,-58700,29524,3520218,-49815959,-16089326
0.840007,840.006720,-0.085992,0.061584,-0.051393,0.064878,-0.947798,-0.306946,-56356,40360,-33681,3401496,-49691930,-16092836
0.841036,841.036140,0.059622,0.111589,-0.003664,0.064732,-0.946119,-0.308940,39074,73131,-2401,3393846,-49603903,-16197369
0.842017,842.016540,0.010936,0.261099,0.045354,0.065865,-0.945552,-0.307698,7167,171114,29723,3453237,-49574157,-16132245
0.843046,843.045960,-0.086984,0.013474,-0.197499,0.066433,-0.947116,-0.308113,-57006,8830,-129433,3482997,-49656157,-16153972
0.844026,844.026360,-0.085390,0.010793,-0.002687,0.066381,-0.951901,-0.306956,-55961,7073,-1761,3480251,-49907040,-16093349
0.845007,845.006760,-0.085799,0.111037,-0.002693,0.066310,-0.948951,-0.304501,-56229,72769,-1765,3476565,-49752374,-15964628
0.846036,846.036180,-0.182133,-0.039697,-0.002036,0.067938,-0.951534,-0.308325,-119363,-26016,-1334,3561914,-49887777,-16165092
0.847017,847.016580,-0.086411,0.261401,-0.002701,0.068806,-0.945751,-0.307204,-56630,171312,-1770,3607438,-49584589,-16106340
0.848046,848.046000,-0.085196,0.060243,0.046013,0.063739,-0.948173,-0.308814,-55834,39481,30155,3341783,-49711574,-16190749
0.849026,849.026400,0.059827,0.061467,-0.003661,0.065834,-0.945941,-0.306236,39208,40283,-2399,3451613,-49594564,-16055581
0.850007,850.006800,0.206046,0.060678,0.092773,0.065852,-0.947553,-0.307288,135034,39766,60800,3452541,-49679089,-16110720
0.851036,851.036220,0.157378,0.011043,0.044397,0.067286,-0.946359,-0.307300,103139,7237,29096,3527725,-49616449,-16111373
0.852017,852.016620,0.156189,-0.086517,-0.150409,0.068173,-0.946203,-0.311366,102360,-56700,-98572,3574243,-49608303,-16324534
0.853046,853.046040,0.059233,0.012686,-0.101064,0.066375,-0.948368,-0.306940,38819,8314,-66233,3479980,-49721796,-16092491
0.854026,854.026440,-0.036526,0.109880,0.094388,0.066616,-0.951102,-0.304011,-23938,72011,61858,3492621,-49865148,-15938958
0.855007,855.006840,0.109108,-0.039262,0.044724,0.064855,-0.951918,-0.306886,71505,-25731,29310,3400260,-49907929,-16089639
0.856036,856.036260,0.108699,0.060980,0.044717,0.067768,-0.948131,-0.311480,71237,39964,29306,3553004,-49709345,-16330537
0.857017,857.016660,-0.279480,-0.039395,-0.050092,0.063737,-0.950482,-0.307547,-183160,-25818,-32828,3341646,-49832642,-16124316
0.858046,858.046080,0.060614,0.159698,0.142441,0.067741,-0.951498,-0.309196,39724,104660,93350,3551589,-49885901,-16210760
0.859026,859.026480,-0.133659,-0.039513,-0.002361,0.067327,-0.949577,-0.308221,-87595,-25895,-1547,3529897,-49785189,-16159675
0.860007,860.006880,-0.230199,-0.140125,-0.001706,0.067608,-0.952947,-0.307359,-150863,-91832,-1118,3544626,-49961847,-16114443
0.861036,861.036300,-0.037306,0.210121,0.094386,0.065308,-0.950976,-0.307899,-24449,137705,61857,3424021,-49858512,-16142795
0.862017,862.016700,-0.135033,0.011948,-0.099767,0.065788,-0.948336,-0.306434,-88495,7830,-65383,3449160,-49720103,-16065959
0.863046,863.046120,0.108745,-0.138837,-0.003970,0.065930,-0.950735,-0.308564,71267,-90988,-2602,3456610,-49845881,-16177645
0.864027,864.026520,-0.134653,0.210423,0.046330,0.065848,-0.947717,-0.309549,-88246,137903,30363,3452322,-49687687,-16229293
0.865007,865.006920,-0.085974,0.160486,0.046010,0.066767,-0.948642,-0.307856,-56344,105176,30153,3500488,-49736182,-16140497
0.866036,866.036340,-0.136247,0.213106,-0.148480,0.067226,-0.948052,-0.308912,-89291,139661,-97308,3524556,-49705208,-16195874
0.867017,867.016740,-0.086363,0.061583,-0.051390,0.065829,-0.951435,-0.306241,-56599,40359,-33679,3451321,-49882578,-16055862
0.868046,868.046160,-0.327145,0.157553,0.193738,0.065646,-0.950111,-0.308873,-214398,103254,126968,3441753,-49813200,-16193856
0.869027,869.026560,-0.087764,0.113716,-0.197502,0.066169,-0.950410,-0.306026,-57517,74525,-129435,3469141,-49828832,-16044589
0.870007,870.006960,-0.039067,-0.135367,-0.295218,0.067125,-0.948473,-0.305438,-25603,-88714,-193474,3519268,-49727303,-16013743
0.871036,871.036380,-0.035876,-0.140730,0.094406,0.067236,-0.948915,-0.309041,-23512,-92229,61870,3525127,-49750486,-16202632
0.872017,872.016780,-0.134050,0.159631,0.095036,0.066392,-0.950259,-0.308945,-87851,104616,62283,3480874,-49820964,-16197617
0.873046,873.046200,-0.231979,0.011580,-0.099118,0.064452,-0.948674,-0.308737,-152030,7589,-64958,3379167,-49737825,-16186729
0.874027,874.026600,-0.471759,0.056087,0.243417,0.067256,-0.947106,-0.307825,-309172,36757,159526,3526146,-49655623,-16138909
0.875007,875.007000,-0.037502,0.160670,0.045685,0.065838,-0.955043,-0.305854,-24577,105297,29940,3451827,-50071771,-16035554
0.876036,876.036420,-0.086977,0.211949,-0.051399,0.064640,-0.950429,-0.306744,-57001,138903,-33685,3388996,-49829872,-16082238
0.877017,877.016820,-0.183923,0.211580,-0.050751,0.067185,-0.953978,-0.309429,-120536,138661,-33260,3522444,-50015917,-16222974
0.878046,878.046240,-0.136035,0.063411,-0.197176,0.064873,-0.950668,-0.308487,-89152,41557,-129221,3401190,-49842368,-16173582
0.879027,879.026640,-0.083775,0.107011,0.289529,0.070001,-0.949296,-0.304162,-54903,70131,189746,3670073,-49770424,-15946862
0.880007,880.007040,0.206473,0.059335,0.190181,0.066105,-0.948606,-0.306712,135314,38886,124637,3465809,-49734285,-16080566
0.881036,881.036460,-0.133028,-0.090977,0.095052,0.068022,-0.945006,-0.305025,-87181,-59623,62293,3566331,-49545539,-15992116
0.882017,882.016860,-0.181122,0.107314,0.241472,0.070066,-0.948473,-0.304983,-118700,70329,158251,3673478,-49727322,-15989882
0.883046,883.046280,-0.180304,-0.093173,0.241484,0.064471,-0.946786,-0.307923,-118164,-61062,158259,3380117,-49638872,-16144048
0.884027,884.026680,-0.087570,0.163168,-0.148802,0.066743,-0.955824,-0.307960,-57390,106934,-97519,3499236,-50112722,-16145973
0.885007,885.007080,-0.181900,-0.090491,0.046671,0.066013,-0.948185,-0.308961,-119210,-59304,30586,3460960,-49712176,-16198478
0.886037,886.036500,0.060237,0.259001,0.191142,0.066218,-0.951631,-0.307705,39477,169739,125267,3471751,-49892873,-16132596
0.887017,887.016900,-0.037109,0.259303,0.143086,0.065552,-0.948658,-0.307941,-24320,169937,93773,3436807,-49736984,-16144963
0.888046,888.046320,0.157573,0.358272,0.287895,0.068435,-0.947167,-0.306864,103267,234797,188675,3587976,-49658819,-16088524
0.889027,889.026720,-0.231227,0.209787,0.046976,0.064588,-0.950483,-0.310498,-151537,137486,30786,3386275,-49832687,-16279062
0.890007,890.007120,-0.084804,0.158878,0.143413,0.067396,-0.951495,-0.306420,-55577,104122,93987,3533500,-49885722,-16065235
0.891037,891.036540,-0.036302,-0.139658,-0.003001,0.069336,-0.950536,-0.308568,-23791,-91526,-1967,3635208,-49835451,-16177869
0.892017,892.016940,-0.035709,-0.090877,0.094402,0.066497,-0.949118,-0.308488,-23402,-59557,61867,3486371,-49761127,-16173652
0.893046,893.046360,-0.133649,-0.139355,-0.051057,0.069189,-0.950687,-0.306356,-87588,-91328,-33461,3627489,-49843379,-16061903
0.894027,894.026760,0.205054,0.012300,-0.053333,0.068095,-0.948431,-0.308388,134384,8061,-34952,3570137,-49725107,-16168411
0.895007,895.007160,0.061238,-0.090509,0.093753,0.066177,-0.951276,-0.307254,40133,-59316,61442,3469571,-49874275,-16108935
0.896037,896.036580,-0.281891,0.163504,-0.244916,0.066521,-0.950604,-0.307037,-184740,107154,-160508,3487634,-49839038,-16097585
0.897017,897.016980,-0.182745,0.110399,-0.002045,0.066931,-0.948474,-0.305026,-119764,72351,-1340,3509106,-49727328,-15992127
0.898046,898.046400,0.497484,0.110294,0.188234,0.063992,-0.945966,-0.307066,326031,72282,123361,3355035,-49595843,-16099099
0.899027,899.026800,-0.182755,0.209972,0.046652,0.068880,-0.948340,-0.307384,-119770,137607,30574,3611306,-49720327,-16115759
0.900007,900.007200,-0.084804,0.158876,0.143414,0.066563,-0.944557,-0.305604,-55577,104121,93988,3489805,-49521994,-16022460
0.901037,901.036620,-0.181140,0.008144,0.144069,0.067714,-0.948821,-0.305935,-118712,5337,94417,3550188,-49745565,-16039816
0.902017,902.017020,0.012958,-0.041241,0.142778,0.064638,-0.947250,-0.305894,8492,-27028,93571,3388891,-49663185,-16037643
0.903046,903.046440,-0.133640,-0.238928,-0.099754,0.068576,-0.952429,-0.308476,-87582,-156584,-65375,3595374,-49934732,-16173023
0.904027,904.026840,0.207271,-0.240321,0.092790,0.064708,-0.947019,-0.307523,135837,-157497,60811,3392566,-49651080,-16123046
0.905007,905.007240,0.012764,-0.090692,0.094078,0.069852,-0.947461,-0.305914,8365,-59436,61655,3662239,-49674235,-16038716
0.906037,906.036660,-0.184972,0.462592,-0.099471,0.066206,-0.947867,-0.308279,-121223,303164,-65189,3471082,-49695510,-16162673
0.907017,907.017060,-0.038326,0.162413,-0.100426,0.063970,-0.947260,-0.306466,-25117,106439,-65815,3353881,-49663717,-16067624
0.908046,908.046480,0.252740,-0.085748,-0.199760,0.061201,-0.948515,-0.307768,165636,-56196,-130915,3208674,-49729506,-16135926
0.909027,909.026880,0.108107,0.011931,-0.052686,0.066289,-0.951877,-0.310907,70849,7819,-34528,3475440,-49905768,-16300500
0.910007,910.007280,-0.086205,0.211011,-0.002698,0.065353,-0.951845,-0.309489,-56495,138288,-1768,3426356,-49904067,-16226153
0.911037,911.036700,-0.084804,0.158878,0.143413,0.065734,-0.947158,-0.305936,-55577,104122,93987,3446338,-49658377,-16039839
0.912017,912.017100,0.156775,0.061566,-0.004309,0.064155,-0.949655,-0.307365,102744,40348,-2824,3363588,-49789256,-16114768
0.913047,913.046520,-0.132043,-0.241611,0.095056,0.066021,-0.948852,-0.308804,-86536,-158342,62296,3461397,-49747158,-16190220
0.914027,914.026920,0.013948,0.007681,0.288885,0.064676,-0.947609,-0.307608,9141,5034,189324,3390904,-49681979,-16127542
0.915007,915.007320,-0.134654,-0.087077,-0.148466,0.066726,-0.948763,-0.308363,-88247,-57067,-97299,3498388,-49742512,-16167091
0.916037,916.036740,-0.181523,-0.189517,-0.002028,0.065537,-0.950144,-0.306255,-118963,-124202,-1329,3436013,-49814921,-16056584
0.917017,917.017140,-0.278461,0.008586,0.144719,0.069300,-0.947630,-0.307577,-182492,5627,94843,3633321,-49683110,-16125911
0.918047,918.046560,0.059464,-0.037563,-0.052356,0.067976,-0.948911,-0.310334,38970,-24617,-34312,3563894,-49750276,-16270450
0.919027,919.026960,0.158015,-0.139450,0.093111,0.067509,-0.949073,-0.309986,103557,-91390,61021,3539414,-49758745,-16252192
0.920007,920.007360,-0.231369,-0.138240,-0.099110,0.067149,-0.947773,-0.307089,-151630,-90597,-64953,3520523,-49690580,-16100303
0.921037,921.036780,-0.084166,0.008653,0.192128,0.064940,-0.947060,-0.308794,-55159,5671,125913,3404711,-49653208,-16189718
0.922017,922.017180,-0.084558,-0.090247,0.094641,0.070369,-0.948480,-0.307552,-55416,-59144,62024,3689373,-49727677,-16124577
0.923047,923.046600,-0.038290,0.062985,-0.100504,0.062605,-0.950730,-0.306569,-25094,41278,-65866,3282320,-49845643,-16073068
0.924027,924.027000,-0.327724,-0.089825,-0.001144,0.066371,-0.948333,-0.307854,-214777,-58868,-750,3479737,-49719980,-16140405
0.925007,925.007400,-0.279454,-0.039520,-0.001471,0.065588,-0.954346,-0.307551,-183143,-25900,-964,3438720,-50035211,-16124527
0.926037,926.036820,0.009171,0.214206,-0.149539,0.067300,-0.951316,-0.311372,6010,140382,-98002,3528438,-49876352,-16324836
0.927017,927.017220,0.108725,0.060855,0.093338,0.067262,-0.950280,-0.306571,71254,39882,61170,3526480,-49822051,-16073139
0.928047,928.046640,0.058850,0.112805,-0.052451,0.064328,-0.948404,-0.309684,38568,73928,-34374,3372659,-49723667,-16236343
0.929027,929.027040,-0.279445,-0.139093,-0.050168,0.069342,-0.948621,-0.310918,-183137,-91156,-32878,3635534,-49735053,-16301078
0.930007,930.007440,0.013391,-0.141342,0.191402,0.066028,-0.946299,-0.308613,8776,-92630,125437,3461781,-49613345,-16180214
0.931037,931.036860,-0.083380,0.106885,0.338145,0.065529,-0.949636,-0.307043,-54644,70048,221607,3435596,-49788253,-16097909
0.932017,932.017260,-0.182312,0.010300,0.046581,0.067746,-0.951772,-0.308681,-119480,6750,30527,3551839,-49900246,-16183770
0.933047,933.046680,0.108743,-0.138290,-0.004056,0.066917,-0.950794,-0.306536,71266,-90630,-2658,3508393,-49848972,-16071338
0.934027,934.027080,0.301236,-0.085420,-0.151463,0.065751,-0.946306,-0.309802,197418,-55981,-99263,3447249,-49613691,-16242532
0.935007,935.007480,0.154785,0.264207,-0.101808,0.067208,-0.949381,-0.307740,101440,173151,-66721,3523654,-49774927,-16134445
0.936037,936.036900,-0.084956,-0.089575,0.045938,0.063006,-0.948489,-0.307127,-55677,-58704,30106,3303349,-49728149,-16102323
0.937017,937.017300,-0.279890,0.359441,0.144614,0.063401,-0.948641,-0.307008,-183429,235563,94774,3324017,-49736102,-16096073
0.938047,938.046720,0.109746,-0.189754,0.093352,0.065222,-0.947087,-0.306815,71923,-124357,61179,3419529,-49654660,-16085948
0.939027,939.027120,0.108345,-0.137621,-0.052759,0.065374,-0.949477,-0.306058,71005,-90191,-34576,3427457,-49779930,-16046239
0.940008,940.007520,0.107538,-0.036707,-0.101468,0.062627,-0.946613,-0.307894,70476,-24056,-66498,3283446,-49629770,-16142501
0.941037,941.036940,0.009976,0.113290,-0.100829,0.066039,-0.947323,-0.309819,6538,74246,-66079,3462321,-49666995,-16243440
0.942017,942.017340,0.059259,0.012288,-0.052444,0.066418,-0.949278,-0.309291,38836,8053,-34370,3482237,-49769527,-16215763
0.943047,943.046760,-0.134235,0.010608,-0.002446,0.065845,-0.949589,-0.306254,-87972,6952,-1603,3452150,-49785828,-16056526
0.944027,944.027160,0.058842,0.211833,-0.003752,0.065916,-0.949595,-0.308350,38563,138827,-2459,3455909,-49786146,-16166411
0.945008,945.007560,0.250687,0.515312,-0.151178,0.067735,-0.948045,-0.309185,164290,337715,-99076,3551251,-49704882,-16210198
0.946037,946.036980,0.157571,0.060495,0.093011,0.068054,-0.948632,-0.309627,103266,39646,60956,3568010,-49735615,-16233349
0.947017,947.017380,0.011324,0.360002,0.142670,0.066962,-0.948402,-0.307139,7421,235931,93500,3510736,-49723559,-16102914
0.948047,948.046800,-0.084779,-0.139571,-0.002763,0.066814,-0.949707,-0.309413,-55561,-91469,-1811,3502967,-49791995,-16222167
0.949027,949.027200,0.011546,0.110736,0.045276,0.067231,-0.948403,-0.308363,7567,72572,29672,3524847,-49723651,-16167107
0.950008,950.007600,-0.181335,-0.041035,0.095195,0.061992,-0.949013,-0.307260,-118840,-26893,62387,3250191,-49755636,-16109299
0.951037,951.037020,0.011935,0.209639,0.142589,0.064740,-0.946469,-0.307482,7822,137389,93447,3394255,-49622234,-16120897
0.952017,952.017420,-0.038728,0.163356,-0.149304,0.067287,-0.946477,-0.307618,-25381,107057,-97848,3527759,-49622676,-16128051
0.953047,953.046840,-0.180325,-0.192072,0.143907,0.067196,-0.948558,-0.307609,-118178,-125876,94311,3523025,-49731774,-16127592
0.954027,954.027240,-0.376633,0.010359,-0.049623,0.063849,-0.950446,-0.308253,-246830,6789,-32521,3347551,-49830735,-16161330
