time_s,time_ms,gyro_x_deg_s,gyro_y_deg_s,gyro_z_deg_s,accel_x_g,accel_y_g,accel_z_g,GX_raw,GY_raw,GZ_raw,AX_raw,AY_raw,AZ_raw
0.000000,0.000000,0.000000,0.000000,0.000000,0.000000,0.000000,0.000000,0.000000,0.000000,0.000000,0.000000,0.000000,0.000000
0.001000,1.000000,-0.300000,-0.100000,0.000000,0.048000,-0.602000,0.798000,-0.300000,-0.100000,0.000000,0.048000,-0.602000,0.798000
0.002000,2.000000,0.000000,0.100000,0.000000,0.048000,-0.598000,0.806000,0.000000,0.100000,0.000000,0.048000,-0.598000,0.806000
0.003000,3.000000,0.400000,0.100000,-0.300000,0.046000,-0.594000,0.798000,0.400000,0.100000,-0.300000,0.046000,-0.594000,0.798000
0.004000,4.000000,0.100000,-0.100000,0.300000,0.046000,-0.592000,0.802000,0.100000,-0.100000,0.300000,0.046000,-0.592000,0.802000
0.005000,5.000000,-0.300000,0.100000,-0.200000,0.044000,-0.594000,0.804000,-0.300000,0.100000,-0.200000,0.044000,-0.594000,0.804000
0.006000,6.000000,0.000000,0.100000,0.000000,0.046000,-0.596000,0.800000,0.000000,0.100000,0.000000,0.046000,-0.596000,0.800000
0.007000,7.000000,0.000000,0.000000,0.000000,0.046000,-0.594000,0.802000,0.000000,0.000000,0.000000,0.046000,-0.594000,0.802000
0.008000,8.000000,-0.100000,0.000000,0.000000,0.046000,-0.594000,0.802000,-0.100000,0.000000,0.000000,0.046000,-0.594000,0.802000
0.009000,9.000000,0.000000,0.000000,0.000000,0.046000,-0.596000,0.800000,0.000000,0.000000,0.000000,0.046000,-0.596000,0.800000
0.010000,10.000000,0.100000,0.000000,0.000000,0.046000,-0.596000,0.800000,0.100000,0.000000,0.000000,0.046000,-0.596000,0.800000
0.011000,11.000000,0.300000,-0.100000,0.000000,0.046000,-0.596000,0.802000,0.300000,-0.100000,0.000000,0.046000,-0.596000,0.802000
0.012000,12.000000,0.200000,-0.100000,0.000000,0.046000,-0.596000,0.802000,0.200000,-0.100000,0.000000,0.046000,-0.596000,0.802000
0.013000,13.000000,0.100000,-0.100000,-0.100000,0.046000,-0.596000,0.802000,0.100000,-0.100000,-0.100000,0.046000,-0.596000,0.802000
0.014000,14.000000,0.100000,-0.100000,-0.100000,0.044000,-0.594000,0.802000,0.100000,-0.100000,-0.100000,0.044000,-0.594000,0.802000
0.015000,15.000000,0.100000,-0.100000,0.000000,0.044000,-0.596000,0.802000,0.100000,-0.100000,0.000000,0.044000,-0.596000,0.802000
0.016000,16.000000,0.000000,0.000000,0.000000,0.044000,-0.596000,0.802000,0.000000,0.000000,0.000000,0.044000,-0.596000,0.802000
0.017000,17.000000,0.000000,0.000000,0.100000,0.044000,-0.596000,0.802000,0.000000,0.000000,0.100000,0.044000,-0.596000,0.802000
0.018000,18.000000,0.000000,0.000000,0.100000,0.044000,-0.598000,0.802000,0.000000,0.000000,0.100000,0.044000,-0.598000,0.802000
0.019000,19.000000,0.000000,0.000000,0.000000,0.046000,-0.598000,0.802000,0.000000,0.000000,0.000000,0.046000,-0.598000,0.802000
0.020000,20.000000,0.000000,0.100000,0.000000,0.046000,-0.598000,0.802000,0.000000,0.100000,0.000000,0.046000,-0.598000,0.802000
0.021000,21.000000,0.000000,0.100000,0.000000,0.044000,-0.598000,0.802000,0.000000,0.100000,0.000000,0.044000,-0.598000,0.802000
0.022000,22.000000,0.100000,0.000000,0.100000,0.044000,-0.596000,0.800000,0.100000,0.000000,0.100000,0.044000,-0.596000,0.800000
0.023000,23.000000,0.100000,0.000000,0.200000,0.044000,-0.598000,0.802000,0.100000,0.000000,0.200000,0.044000,-0.598000,0.802000
0.024000,24.000000,0.000000,0.100000,0.200000,0.046000,-0.596000,0.802000,0.000000,0.100000,0.200000,0.046000,-0.596000,0.802000
0.025000,25.000000,-0.100000,0.100000,0.100000,0.046000,-0.596000,0.802000,-0.100000,0.100000,0.100000,0.046000,-0.596000,0.802000
0.026000,26.000000,-0.100000,0.000000,0.000000,0.046000,-0.594000,0.802000,-0.100000,0.000000,0.000000,0.046000,-0.594000,0.802000
0.027000,27.000000,0.000000,0.000000,-0.100000,0.046000,-0.594000,0.800000,0.000000,0.000000,-0.100000,0.046000,-0.594000,0.800000
0.028000,28.000000,0.100000,-0.100000,-0.100000,0.046000,-0.594000,0.798000,0.100000,-0.100000,-0.100000,0.046000,-0.594000,0.798000
0.029000,29.000000,0.100000,-0.100000,-0.100000,0.046000,-0.596000,0.798000,0.100000,-0.100000,-0.100000,0.046000,-0.596000,0.798000
0.030000,30.000000,0.000000,-0.100000,0.000000,0.046000,-0.596000,0.800000,0.000000,-0.100000,0.000000,0.046000,-0.596000,0.800000
0.031000,31.000000,0.000000,-0.100000,0.000000,0.046000,-0.596000,0.802000,0.000000,-0.100000,0.000000,0.046000,-0.596000,0.802000
0.032000,32.000000,-0.100000,-0.100000,0.000000,0.048000,-0.596000,0.804000,-0.100000,-0.100000,0.000000,0.048000,-0.596000,0.804000
0.033000,33.000000,0.000000,-0.100000,0.100000,0.048000,-0.596000,0.804000,0.000000,-0.100000,0.100000,0.048000,-0.596000,0.804000
0.034000,34.000000,0.100000,-0.100000,0.100000,0.046000,-0.596000,0.802000,0.100000,-0.100000,0.100000,0.046000,-0.596000,0.802000
0.035000,35.000000,0.000000,0.000000,0.000000,0.044000,-0.596000,0.802000,0.000000,0.000000,0.000000,0.044000,-0.596000,0.802000
0.036000,36.000000,-0.100000,0.000000,-0.100000,0.044000,-0.596000,0.802000,-0.100000,0.000000,-0.100000,0.044000,-0.596000,0.802000
0.037000,37.000000,0.000000,0.000000,-0.100000,0.044000,-0.596000,0.802000,0.000000,0.000000,-0.100000,0.044000,-0.596000,0.802000
0.038000,38.000000,0.200000,0.000000,0.000000,0.044000,-0.596000,0.802000,0.200000,0.000000,0.000000,0.044000,-0.596000,0.802000
0.039000,39.000000,0.200000,0.000000,0.100000,0.046000,-0.596000,0.802000,0.200000,0.000000,0.100000,0.046000,-0.596000,0.802000
0.040000,40.000000,0.100000,0.000000,0.100000,0.046000,-0.596000,0.802000,0.100000,0.000000,0.100000,0.046000,-0.596000,0.802000
0.041000,41.000000,-0.100000,0.000000,0.100000,0.046000,-0.598000,0.800000,-0.100000,0.000000,0.100000,0.046000,-0.598000,0.800000
0.042000,42.000000,-0.100000,0.000000,0.100000,0.046000,-0.598000,0.800000,-0.100000,0.000000,0.100000,0.046000,-0.598000,0.800000
0.043000,43.000000,0.000000,-0.100000,0.000000,0.044000,-0.598000,0.798000,0.000000,-0.100000,0.000000,0.044000,-0.598000,0.798000
0.044000,44.000000,0.000000,-0.100000,-0.200000,0.044000,-0.598000,0.800000,0.000000,-0.100000,-0.200000,0.044000,-0.598000,0.800000
0.045000,45.000000,0.000000,0.000000,-0.200000,0.046000,-0.598000,0.800000,0.000000,0.000000,-0.200000,0.046000,-0.598000,0.800000
0.046000,46.000000,0.000000,0.100000,0.000000,0.046000,-0.596000,0.800000,0.000000,0.100000,0.000000,0.046000,-0.596000,0.800000
0.047000,47.000000,0.100000,0.100000,0.100000,0.046000,-0.596000,0.800000,0.100000,0.100000,0.100000,0.046000,-0.596000,0.800000
0.048000,48.000000,0.100000,0.100000,0.100000,0.046000,-0.596000,0.800000,0.100000,0.100000,0.100000,0.046000,-0.596000,0.800000
0.049000,49.000000,0.000000,0.000000,0.000000,0.044000,-0.596000,0.800000,0.000000,0.000000,0.000000,0.044000,-0.596000,0.800000
0.050000,50.000000,-0.100000,0.000000,0.000000,0.044000,-0.596000,0.800000,-0.100000,0.000000,0.000000,0.044000,-0.596000,0.800000
0.051000,51.000000,0.000000,0.000000,0.100000,0.044000,-0.596000,0.800000,0.000000,0.000000,0.100000,0.044000,-0.596000,0.800000
0.052000,52.000000,0.100000,0.000000,0.100000,0.046000,-0.596000,0.800000,0.100000,0.000000,0.100000,0.046000,-0.596000,0.800000
0.053000,53.000000,0.100000,0.000000,0.000000,0.046000,-0.594000,0.800000,0.100000,0.000000,0.000000,0.046000,-0.594000,0.800000
0.054000,54.000000,0.100000,0.000000,0.000000,0.046000,-0.594000,0.802000,0.100000,0.000000,0.000000,0.046000,-0.594000,0.802000
0.055000,55.000000,0.100000,0.000000,0.000000,0.046000,-0.596000,0.804000,0.100000,0.000000,0.000000,0.046000,-0.596000,0.804000
0.056000,56.000000,0.100000,0.000000,0.000000,0.046000,-0.596000,0.804000,0.100000,0.000000,0.000000,0.046000,-0.596000,0.804000
0.057000,57.000000,0.100000,0.000000,0.000000,0.046000,-0.596000,0.802000,0.100000,0.000000,0.000000,0.046000,-0.596000,0.802000
0.058000,58.000000,0.000000,0.100000,0.000000,0.046000,-0.596000,0.802000,0.000000,0.100000,0.000000,0.046000,-0.596000,0.802000
0.059000,59.000000,-0.100000,0.100000,0.000000,0.046000,-0.598000,0.802000,-0.100000,0.100000,0.000000,0.046000,-0.598000,0.802000
0.060000,60.000000,-0.200000,0.000000,0.000000,0.046000,-0.598000,0.800000,-0.200000,0.000000,0.000000,0.046000,-0.598000,0.800000
0.061000,61.000000,-0.100000,-0.100000,-0.100000,0.046000,-0.596000,0.800000,-0.100000,-0.100000,-0.100000,0.046000,-0.596000,0.800000
0.062000,62.000000,0.000000,-0.100000,-0.100000,0.046000,-0.596000,0.800000,0.000000,-0.100000,-0.100000,0.046000,-0.596000,0.800000
0.063000,63.000000,0.000000,-0.100000,0.000000,0.046000,-0.596000,0.800000,0.000000,-0.100000,0.000000,0.046000,-0.596000,0.800000
0.064000,64.000000,0.100000,-0.200000,0.200000,0.046000,-0.596000,0.800000,0.100000,-0.200000,0.200000,0.046000,-0.596000,0.800000
0.065000,65.000000,0.100000,-0.100000,0.100000,0.046000,-0.596000,0.800000,0.100000,-0.100000,0.100000,0.046000,-0.596000,0.800000
0.066000,66.000000,0.100000,0.100000,0.000000,0.046000,-0.596000,0.800000,0.100000,0.100000,0.000000,0.046000,-0.596000,0.800000
0.067000,67.000000,0.000000,0.100000,-0.100000,0.046000,-0.598000,0.800000,0.000000,0.100000,-0.100000,0.046000,-0.598000,0.800000
0.068000,68.000000,-0.100000,0.100000,0.000000,0.046000,-0.600000,0.802000,-0.100000,0.100000,0.000000,0.046000,-0.600000,0.802000
0.069000,69.000000,-0.100000,0.100000,0.100000,0.044000,-0.598000,0.802000,-0.100000,0.100000,0.100000,0.044000,-0.598000,0.802000
0.070000,70.000000,-0.100000,0.000000,0.100000,0.044000,-0.596000,0.802000,-0.100000,0.000000,0.100000,0.044000,-0.596000,0.802000
0.071000,71.000000,0.100000,-0.100000,0.100000,0.046000,-0.594000,0.800000,0.100000,-0.100000,0.100000,0.046000,-0.594000,0.800000
0.072000,72.000000,0.100000,-0.100000,0.100000,0.046000,-0.596000,0.802000,0.100000,-0.100000,0.100000,0.046000,-0.596000,0.802000
0.073000,73.000000,0.000000,0.000000,0.000000,0.044000,-0.596000,0.802000,0.000000,0.000000,0.000000,0.044000,-0.596000,0.802000
0.074000,74.000000,0.000000,0.000000,-0.100000,0.044000,-0.596000,0.802000,0.000000,0.000000,-0.100000,0.044000,-0.596000,0.802000
0.075000,75.000000,-0.100000,0.000000,-0.100000,0.044000,-0.596000,0.802000,-0.100000,0.000000,-0.100000,0.044000,-0.596000,0.802000
0.076000,76.000000,-0.100000,0.000000,-0.100000,0.044000,-0.596000,0.802000,-0.100000,0.000000,-0.100000,0.044000,-0.596000,0.802000
0.077000,77.000000,-0.100000,0.100000,0.000000,0.046000,-0.596000,0.800000,-0.100000,0.100000,0.000000,0.046000,-0.596000,0.800000
0.078000,78.000000,0.000000,0.100000,0.100000,0.048000,-0.596000,0.800000,0.000000,0.100000,0.100000,0.048000,-0.596000,0.800000
0.079000,79.000000,-0.100000,0.000000,0.100000,0.048000,-0.596000,0.800000,-0.100000,0.000000,0.100000,0.048000,-0.596000,0.800000
0.080000,80.000000,-0.100000,0.000000,0.000000,0.048000,-0.596000,0.802000,-0.100000,0.000000,0.000000,0.048000,-0.596000,0.802000
0.081000,81.000000,0.000000,-0.100000,0.000000,0.046000,-0.598000,0.802000,0.000000,-0.100000,0.000000,0.046000,-0.598000,0.802000
0.082000,82.000000,0.100000,0.000000,0.000000,0.046000,-0.598000,0.802000,0.100000,0.000000,0.000000,0.046000,-0.598000,0.802000
0.083000,83.000000,0.100000,-0.100000,-0.100000,0.046000,-0.598000,0.802000,0.100000,-0.100000,-0.100000,0.046000,-0.598000,0.802000
0.084000,84.000000,0.000000,-0.100000,-0.100000,0.046000,-0.596000,0.802000,0.000000,-0.100000,-0.100000,0.046000,-0.596000,0.802000
0.085000,85.000000,0.000000,-0.100000,-0.100000,0.046000,-0.596000,0.800000,0.000000,-0.100000,-0.100000,0.046000,-0.596000,0.800000
0.086000,86.000000,0.000000,-0.100000,0.100000,0.046000,-0.596000,0.802000,0.000000,-0.100000,0.100000,0.046000,-0.596000,0.802000
0.087000,87.000000,0.100000,0.000000,0.000000,0.046000,-0.596000,0.802000,0.100000,0.000000,0.000000,0.046000,-0.596000,0.802000
0.088000,88.000000,0.200000,0.100000,-0.100000,0.046000,-0.598000,0.802000,0.200000,0.100000,-0.100000,0.046000,-0.598000,0.802000
0.089000,89.000000,0.000000,0.100000,-0.100000,0.046000,-0.598000,0.800000,0.000000,0.100000,-0.100000,0.046000,-0.598000,0.800000
0.090000,90.000000,-0.100000,0.000000,0.000000,0.044000,-0.596000,0.800000,-0.100000,0.000000,0.000000,0.044000,-0.596000,0.800000
0.091000,91.000000,-0.100000,0.000000,0.000000,0.046000,-0.596000,0.800000,-0.100000,0.000000,0.000000,0.046000,-0.596000,0.800000
0.092000,92.000000,-0.100000,0.000000,0.000000,0.046000,-0.594000,0.798000,-0.100000,0.000000,0.000000,0.046000,-0.594000,0.798000
0.093000,93.000000,0.000000,0.000000,0.000000,0.046000,-0.594000,0.798000,0.000000,0.000000,0.000000,0.046000,-0.594000,0.798000
0.094000,94.000000,-0.100000,-0.100000,0.100000,0.046000,-0.594000,0.798000,-0.100000,-0.100000,0.100000,0.046000,-0.594000,0.798000
0.095000,95.000000,0.000000,0.000000,0.100000,0.046000,-0.594000,0.798000,0.000000,0.000000,0.100000,0.046000,-0.594000,0.798000
0.096000,96.000000,0.100000,0.100000,0.000000,0.046000,-0.594000,0.800000,0.100000,0.100000,0.000000,0.046000,-0.594000,0.800000
0.097000,97.000000,0.200000,0.100000,-0.100000,0.046000,-0.596000,0.800000,0.200000,0.100000,-0.100000,0.046000,-0.596000,0.800000
0.098000,98.000000,0.100000,0.000000,-0.100000,0.046000,-0.598000,0.800000,0.100000,0.000000,-0.100000,0.046000,-0.598000,0.800000
0.099000,99.000000,-0.100000,-0.100000,0.000000,0.046000,-0.598000,0.800000,-0.100000,-0.100000,0.000000,0.046000,-0.598000,0.800000
0.100000,100.000000,-0.100000,-0.100000,-0.100000,0.046000,-0.598000,0.800000,-0.100000,-0.100000,-0.100000,0.046000,-0.598000,0.800000
0.101000,101.000000,0.000000,-0.100000,-0.100000,0.046000,-0.598000,0.802000,0.000000,-0.100000,-0.100000,0.046000,-0.598000,0.802000
0.102000,102.000000,0.100000,-0.100000,-0.100000,0.046000,-0.598000,0.802000,0.100000,-0.100000,-0.100000,0.046000,-0.598000,0.802000
0.103000,103.000000,0.000000,-0.100000,0.100000,0.046000,-0.598000,0.802000,0.000000,-0.100000,0.100000,0.046000,-0.598000,0.802000
0.104000,104.000000,0.000000,0.000000,0.100000,0.046000,-0.598000,0.802000,0.000000,0.000000,0.100000,0.046000,-0.598000,0.802000
0.105000,105.000000,0.000000,0.100000,0.100000,0.046000,-0.596000,0.800000,0.000000,0.100000,0.100000,0.046000,-0.596000,0.800000
0.106000,106.000000,0.000000,0.100000,-0.100000,0.046000,-0.598000,0.800000,0.000000,0.100000,-0.100000,0.046000,-0.598000,0.800000
0.107000,107.000000,0.000000,0.100000,-0.100000,0.046000,-0.600000,0.800000,0.000000,0.100000,-0.100000,0.046000,-0.600000,0.800000
0.108000,108.000000,-0.100000,-0.100000,0.000000,0.046000,-0.600000,0.800000,-0.100000,-0.100000,0.000000,0.046000,-0.600000,0.800000
0.109000,109.000000,-0.200000,-0.200000,0.100000,0.046000,-0.598000,0.800000,-0.200000,-0.200000,0.100000,0.046000,-0.598000,0.800000
0.110000,110.000000,-0.200000,-0.200000,0.100000,0.046000,-0.596000,0.800000,-0.200000,-0.200000,0.100000,0.046000,-0.596000,0.800000
0.111000,111.000000,-0.100000,0.000000,0.100000,0.046000,-0.596000,0.802000,-0.100000,0.000000,0.100000,0.046000,-0.596000,0.802000
0.112000,112.000000,-0.100000,0.100000,0.000000,0.046000,-0.598000,0.800000,-0.100000,0.100000,0.000000,0.046000,-0.598000,0.800000
0.113000,113.000000,0.000000,0.100000,-0.100000,0.046000,-0.598000,0.800000,0.000000,0.100000,-0.100000,0.046000,-0.598000,0.800000
0.114000,114.000000,0.100000,0.000000,-0.100000,0.046000,-0.598000,0.802000,0.100000,0.000000,-0.100000,0.046000,-0.598000,0.802000
0.115000,115.000000,0.100000,-0.100000,-0.100000,0.046000,-0.596000,0.802000,0.100000,-0.100000,-0.100000,0.046000,-0.596000,0.802000
0.116000,116.000000,0.000000,-0.100000,0.000000,0.046000,-0.596000,0.802000,0.000000,-0.100000,0.000000,0.046000,-0.596000,0.802000
0.117000,117.000000,-0.100000,-0.100000,0.000000,0.046000,-0.596000,0.802000,-0.100000,-0.100000,0.000000,0.046000,-0.596000,0.802000
0.118000,118.000000,-0.200000,0.000000,0.000000,0.046000,-0.596000,0.800000,-0.200000,0.000000,0.000000,0.046000,-0.596000,0.800000
0.119000,119.000000,-0.100000,0.100000,0.000000,0.046000,-0.596000,0.800000,-0.100000,0.100000,0.000000,0.046000,-0.596000,0.800000
0.120000,120.000000,0.100000,0.100000,0.000000,0.046000,-0.596000,0.800000,0.100000,0.100000,0.000000,0.046000,-0.596000,0.800000
0.121000,121.000000,0.200000,0.100000,-0.100000,0.046000,-0.596000,0.800000,0.200000,0.100000,-0.100000,0.046000,-0.596000,0.800000
0.122000,122.000000,0.200000,0.000000,0.000000,0.046000,-0.596000,0.800000,0.200000,0.000000,0.000000,0.046000,-0.596000,0.800000
0.123000,123.000000,0.100000,-0.200000,-0.100000,0.046000,-0.596000,0.800000,0.100000,-0.200000,-0.100000,0.046000,-0.596000,0.800000
0.124000,124.000000,0.000000,-0.100000,0.000000,0.046000,-0.596000,0.800000,0.000000,-0.100000,0.000000,0.046000,-0.596000,0.800000
0.125000,125.000000,0.000000,0.000000,0.000000,0.046000,-0.596000,0.800000,0.000000,0.000000,0.000000,0.046000,-0.596000,0.800000
0.126000,126.000000,0.000000,0.100000,0.100000,0.046000,-0.598000,0.802000,0.000000,0.100000,0.100000,0.046000,-0.598000,0.802000
0.127000,127.000000,0.000000,0.000000,0.000000,0.046000,-0.598000,0.802000,0.000000,0.000000,0.000000,0.046000,-0.598000,0.802000
0.128000,128.000000,-0.100000,0.000000,-0.100000,0.046000,-0.598000,0.802000,-0.100000,0.000000,-0.100000,0.046000,-0.598000,0.802000
0.129000,129.000000,-0.100000,0.100000,0.000000,0.046000,-0.598000,0.800000,-0.100000,0.100000,0.000000,0.046000,-0.598000,0.800000
0.130000,130.000000,0.000000,0.100000,0.000000,0.046000,-0.598000,0.798000,0.000000,0.100000,0.000000,0.046000,-0.598000,0.798000
0.131000,131.000000,0.100000,0.000000,0.000000,0.046000,-0.598000,0.800000,0.100000,0.000000,0.000000,0.046000,-0.598000,0.800000
0.132000,132.000000,0.100000,0.000000,0.000000,0.046000,-0.596000,0.800000,0.100000,0.000000,0.000000,0.046000,-0.596000,0.800000
0.133000,133.000000,0.100000,0.000000,0.100000,0.046000,-0.596000,0.800000,0.100000,0.000000,0.100000,0.046000,-0.596000,0.800000
0.134000,134.000000,0.100000,0.000000,0.100000,0.046000,-0.596000,0.800000,0.100000,0.000000,0.100000,0.046000,-0.596000,0.800000
0.135000,135.000000,-0.100000,0.000000,0.000000,0.046000,-0.596000,0.800000,-0.100000,0.000000,0.000000,0.046000,-0.596000,0.800000
0.136000,136.000000,-0.100000,0.000000,0.000000,0.046000,-0.598000,0.800000,-0.100000,0.000000,0.000000,0.046000,-0.598000,0.800000
0.137000,137.000000,0.000000,0.100000,0.100000,0.046000,-0.598000,0.798000,0.000000,0.100000,0.100000,0.046000,-0.598000,0.798000
0.138000,138.000000,0.000000,0.100000,0.100000,0.046000,-0.598000,0.800000,0.000000,0.100000,0.100000,0.046000,-0.598000,0.800000
0.139000,139.000000,0.100000,0.100000,0.000000,0.046000,-0.598000,0.800000,0.100000,0.100000,0.000000,0.046000,-0.598000,0.800000
0.140000,140.000000,0.200000,0.000000,0.000000,0.046000,-0.596000,0.802000,0.200000,0.000000,0.000000,0.046000,-0.596000,0.802000
0.141000,141.000000,0.100000,0.000000,0.000000,0.046000,-0.596000,0.802000,0.100000,0.000000,0.000000,0.046000,-0.596000,0.802000
0.142000,142.000000,-0.100000,0.000000,0.000000,0.046000,-0.596000,0.800000,-0.100000,0.000000,0.000000,0.046000,-0.596000,0.800000
0.143000,143.000000,-0.300000,0.000000,0.000000,0.046000,-0.596000,0.800000,-0.300000,0.000000,0.000000,0.046000,-0.596000,0.800000
0.144000,144.000000,-0.100000,0.000000,0.000000,0.046000,-0.598000,0.800000,-0.100000,0.000000,0.000000,0.046000,-0.598000,0.800000
0.145000,145.000000,0.100000,0.000000,0.100000,0.046000,-0.596000,0.800000,0.100000,0.000000,0.100000,0.046000,-0.596000,0.800000
0.146000,146.000000,0.200000,0.000000,0.200000,0.046000,-0.596000,0.802000,0.200000,0.000000,0.200000,0.046000,-0.596000,0.802000
0.147000,147.000000,0.100000,0.100000,0.100000,0.044000,-0.596000,0.802000,0.100000,0.100000,0.100000,0.044000,-0.596000,0.802000
0.148000,148.000000,0.000000,0.100000,0.000000,0.044000,-0.596000,0.802000,0.000000,0.100000,0.000000,0.044000,-0.596000,0.802000
0.149000,149.000000,0.100000,0.000000,0.100000,0.044000,-0.596000,0.802000,0.100000,0.000000,0.100000,0.044000,-0.596000,0.802000
0.150000,150.000000,0.100000,0.000000,0.100000,0.044000,-0.596000,0.800000,0.100000,0.000000,0.100000,0.044000,-0.596000,0.800000
0.151000,151.000000,0.000000,0.000000,0.100000,0.044000,-0.596000,0.800000,0.000000,0.000000,0.100000,0.044000,-0.596000,0.800000
0.152000,152.000000,-0.100000,0.100000,0.100000,0.044000,-0.594000,0.800000,-0.100000,0.100000,0.100000,0.044000,-0.594000,0.800000
0.153000,153.000000,0.000000,0.100000,0.000000,0.044000,-0.594000,0.800000,0.000000,0.100000,0.000000,0.044000,-0.594000,0.800000
0.154000,154.000000,-0.100000,0.000000,0.000000,0.046000,-0.596000,0.800000,-0.100000,0.000000,0.000000,0.046000,-0.596000,0.800000
0.155000,155.000000,-0.100000,0.000000,0.000000,0.046000,-0.596000,0.800000,-0.100000,0.000000,0.000000,0.046000,-0.596000,0.800000
0.156000,156.000000,0.000000,0.000000,0.000000,0.046000,-0.596000,0.800000,0.000000,0.000000,0.000000,0.046000,-0.596000,0.800000
0.157000,157.000000,0.000000,0.000000,0.100000,0.046000,-0.598000,0.800000,0.000000,0.000000,0.100000,0.046000,-0.598000,0.800000
0.158000,158.000000,0.000000,-0.100000,0.100000,0.046000,-0.598000,0.800000,0.000000,-0.100000,0.100000,0.046000,-0.598000,0.800000
0.159000,159.000000,0.100000,-0.100000,0.000000,0.046000,-0.598000,0.800000,0.100000,-0.100000,0.000000,0.046000,-0.598000,0.800000
0.160000,160.000000,0.200000,-0.100000,0.000000,0.044000,-0.598000,0.800000,0.200000,-0.100000,0.000000,0.044000,-0.598000,0.800000
0.161000,161.000000,0.200000,-0.100000,0.000000,0.046000,-0.598000,0.800000,0.200000,-0.100000,0.000000,0.046000,-0.598000,0.800000
0.162000,162.000000,0.100000,-0.100000,0.000000,0.046000,-0.598000,0.800000,0.100000,-0.100000,0.000000,0.046000,-0.598000,0.800000
0.163000,163.000000,0.100000,-0.100000,0.000000,0.046000,-0.598000,0.802000,0.100000,-0.100000,0.000000,0.046000,-0.598000,0.802000
0.164000,164.000000,0.000000,0.000000,0.000000,0.046000,-0.598000,0.802000,0.000000,0.000000,0.000000,0.046000,-0.598000,0.802000
0.165000,165.000000,-0.100000,0.100000,0.000000,0.046000,-0.596000,0.802000,-0.100000,0.100000,0.000000,0.046000,-0.596000,0.802000
0.166000,166.000000,-0.100000,0.200000,0.000000,0.044000,-0.596000,0.800000,-0.100000,0.200000,0.000000,0.044000,-0.596000,0.800000
0.167000,167.000000,-0.100000,0.100000,0.000000,0.044000,-0.596000,0.800000,-0.100000,0.100000,0.000000,0.044000,-0.596000,0.800000
0.168000,168.000000,-0.100000,-0.100000,0.000000,0.044000,-0.596000,0.800000,-0.100000,-0.100000,0.000000,0.044000,-0.596000,0.800000
0.169000,169.000000,-0.100000,-0.200000,0.000000,0.044000,-0.596000,0.800000,-0.100000,-0.200000,0.000000,0.044000,-0.596000,0.800000
0.170000,170.000000,0.000000,-0.100000,0.000000,0.046000,-0.594000,0.798000,0.000000,-0.100000,0.000000,0.046000,-0.594000,0.798000
0.171000,171.000000,0.000000,0.100000,0.200000,0.046000,-0.596000,0.798000,0.000000,0.100000,0.200000,0.046000,-0.596000,0.798000
0.172000,172.000000,0.000000,0.100000,0.200000,0.046000,-0.596000,0.798000,0.000000,0.100000,0.200000,0.046000,-0.596000,0.798000
0.173000,173.000000,0.000000,0.100000,0.100000,0.046000,-0.598000,0.800000,0.000000,0.100000,0.100000,0.046000,-0.598000,0.800000
0.174000,174.000000,0.000000,-0.100000,0.000000,0.046000,-0.600000,0.802000,0.000000,-0.100000,0.000000,0.046000,-0.600000,0.802000
0.175000,175.000000,-0.100000,-0.100000,-0.100000,0.046000,-0.598000,0.802000,-0.100000,-0.100000,-0.100000,0.046000,-0.598000,0.802000
0.176000,176.000000,-0.100000,0.000000,0.000000,0.046000,-0.596000,0.802000,-0.100000,0.000000,0.000000,0.046000,-0.596000,0.802000
0.177000,177.000000,0.000000,0.000000,0.000000,0.044000,-0.598000,0.802000,0.000000,0.000000,0.000000,0.044000,-0.598000,0.802000
0.178000,178.000000,0.100000,0.000000,0.000000,0.044000,-0.598000,0.802000,0.100000,0.000000,0.000000,0.044000,-0.598000,0.802000
0.179000,179.000000,0.100000,0.000000,0.000000,0.044000,-0.598000,0.804000,0.100000,0.000000,0.000000,0.044000,-0.598000,0.804000
0.180000,180.000000,0.200000,0.100000,0.000000,0.044000,-0.596000,0.804000,0.200000,0.100000,0.000000,0.044000,-0.596000,0.804000
0.181000,181.000000,0.100000,0.000000,0.000000,0.046000,-0.596000,0.802000,0.100000,0.000000,0.000000,0.046000,-0.596000,0.802000
0.182000,182.000000,-0.100000,0.000000,-0.100000,0.046000,-0.594000,0.802000,-0.100000,0.000000,-0.100000,0.046000,-0.594000,0.802000
0.183000,183.000000,0.000000,0.000000,-0.100000,0.046000,-0.594000,0.802000,0.000000,0.000000,-0.100000,0.046000,-0.594000,0.802000
0.184000,184.000000,0.100000,0.100000,-0.100000,0.046000,-0.596000,0.800000,0.100000,0.100000,-0.100000,0.046000,-0.596000,0.800000
0.185000,185.000000,0.000000,0.100000,0.000000,0.046000,-0.596000,0.800000,0.000000,0.100000,0.000000,0.046000,-0.596000,0.800000
0.186000,186.000000,-0.100000,0.000000,0.100000,0.046000,-0.598000,0.802000,-0.100000,0.000000,0.100000,0.046000,-0.598000,0.802000
0.187000,187.000000,-0.200000,0.000000,0.100000,0.044000,-0.598000,0.800000,-0.200000,0.000000,0.100000,0.044000,-0.598000,0.800000
0.188000,188.000000,-0.100000,0.000000,0.000000,0.044000,-0.598000,0.800000,-0.100000,0.000000,0.000000,0.044000,-0.598000,0.800000
0.189000,189.000000,0.000000,0.000000,-0.100000,0.044000,-0.596000,0.800000,0.000000,0.000000,-0.100000,0.044000,-0.596000,0.800000
0.190000,190.000000,0.000000,0.000000,-0.100000,0.044000,-0.598000,0.800000,0.000000,0.000000,-0.100000,0.044000,-0.598000,0.800000
0.191000,191.000000,-0.100000,-0.100000,-0.100000,0.044000,-0.598000,0.802000,-0.100000,-0.100000,-0.100000,0.044000,-0.598000,0.802000
0.192000,192.000000,-0.100000,-0.100000,0.000000,0.046000,-0.596000,0.800000,-0.100000,-0.100000,0.000000,0.046000,-0.596000,0.800000
0.193000,193.000000,-0.100000,0.000000,0.100000,0.046000,-0.596000,0.800000,-0.100000,0.000000,0.100000,0.046000,-0.596000,0.800000
0.194000,194.000000,-0.100000,0.100000,0.100000,0.046000,-0.596000,0.800000,-0.100000,0.100000,0.100000,0.046000,-0.596000,0.800000
0.195000,195.000000,0.000000,0.000000,0.000000,0.046000,-0.596000,0.800000,0.000000,0.000000,0.000000,0.046000,-0.596000,0.800000
0.196000,196.000000,0.100000,0.000000,-0.100000,0.044000,-0.594000,0.800000,0.100000,0.000000,-0.100000,0.044000,-0.594000,0.800000
0.197000,197.000000,0.000000,0.000000,-0.100000,0.044000,-0.594000,0.800000,0.000000,0.000000,-0.100000,0.044000,-0.594000,0.800000
0.198000,198.000000,-0.100000,0.100000,0.000000,0.046000,-0.594000,0.802000,-0.100000,0.100000,0.000000,0.046000,-0.594000,0.802000
0.199000,199.000000,-0.100000,0.100000,0.100000,0.046000,-0.594000,0.802000,-0.100000,0.100000,0.100000,0.046000,-0.594000,0.802000
0.200000,200.000000,0.000000,0.100000,0.100000,0.046000,-0.594000,0.800000,0.000000,0.100000,0.100000,0.046000,-0.594000,0.800000
0.201000,201.000000,0.100000,0.000000,0.000000,0.046000,-0.596000,0.800000,0.100000,0.000000,0.000000,0.046000,-0.596000,0.800000
0.202000,202.000000,0.200000,0.100000,-0.100000,0.046000,-0.596000,0.800000,0.200000,0.100000,-0.100000,0.046000,-0.596000,0.800000
0.203000,203.000000,0.200000,0.100000,0.000000,0.046000,-0.596000,0.802000,0.200000,0.100000,0.000000,0.046000,-0.596000,0.802000
0.204000,204.000000,0.100000,0.000000,0.100000,0.046000,-0.598000,0.802000,0.100000,0.000000,0.100000,0.046000,-0.598000,0.802000
0.205000,205.000000,0.000000,0.000000,0.100000,0.046000,-0.598000,0.802000,0.000000,0.000000,0.100000,0.046000,-0.598000,0.802000
0.206000,206.000000,-0.100000,0.000000,0.100000,0.046000,-0.598000,0.800000,-0.100000,0.000000,0.100000,0.046000,-0.598000,0.800000
0.207000,207.000000,-0.200000,-0.100000,0.000000,0.046000,-0.598000,0.800000,-0.200000,-0.100000,0.000000,0.046000,-0.598000,0.800000
0.208000,208.000000,-0.200000,0.000000,0.000000,0.046000,-0.596000,0.800000,-0.200000,0.000000,0.000000,0.046000,-0.596000,0.800000
0.209000,209.000000,-0.100000,0.100000,0.100000,0.046000,-0.598000,0.800000,-0.100000,0.100000,0.100000,0.046000,-0.598000,0.800000
0.210000,210.000000,0.100000,0.200000,0.100000,0.046000,-0.598000,0.800000,0.100000,0.200000,0.100000,0.046000,-0.598000,0.800000
0.211000,211.000000,0.100000,0.000000,0.100000,0.046000,-0.598000,0.800000,0.100000,0.000000,0.100000,0.046000,-0.598000,0.800000
0.212000,212.000000,0.100000,0.000000,0.100000,0.046000,-0.598000,0.800000,0.100000,0.000000,0.100000,0.046000,-0.598000,0.800000
0.213000,213.000000,0.000000,0.000000,0.100000,0.046000,-0.598000,0.800000,0.000000,0.000000,0.100000,0.046000,-0.598000,0.800000
0.214000,214.000000,0.000000,0.000000,0.000000,0.046000,-0.598000,0.800000,0.000000,0.000000,0.000000,0.046000,-0.598000,0.800000
0.215000,215.000000,0.000000,0.000000,0.000000,0.044000,-0.600000,0.800000,0.000000,0.000000,0.000000,0.044000,-0.600000,0.800000
0.216000,216.000000,0.000000,0.100000,0.000000,0.044000,-0.600000,0.800000,0.000000,0.100000,0.000000,0.044000,-0.600000,0.800000
0.217000,217.000000,0.100000,0.000000,0.000000,0.044000,-0.598000,0.800000,0.100000,0.000000,0.000000,0.044000,-0.598000,0.800000
0.218000,218.000000,0.100000,-0.100000,0.100000,0.046000,-0.598000,0.800000,0.100000,-0.100000,0.100000,0.046000,-0.598000,0.800000
0.219000,219.000000,0.000000,0.000000,0.000000,0.046000,-0.598000,0.802000,0.000000,0.000000,0.000000,0.046000,-0.598000,0.802000
0.220000,220.000000,0.000000,0.100000,0.000000,0.046000,-0.598000,0.802000,0.000000,0.100000,0.000000,0.046000,-0.598000,0.802000
0.221000,221.000000,-0.100000,0.000000,0.000000,0.046000,-0.598000,0.802000,-0.100000,0.000000,0.000000,0.046000,-0.598000,0.802000
0.222000,222.000000,0.000000,0.000000,0.000000,0.046000,-0.598000,0.800000,0.000000,0.000000,0.000000,0.046000,-0.598000,0.800000
0.223000,223.000000,0.000000,-0.100000,0.000000,0.046000,-0.596000,0.800000,0.000000,-0.100000,0.000000,0.046000,-0.596000,0.800000
0.224000,224.000000,0.000000,0.000000,0.000000,0.046000,-0.596000,0.800000,0.000000,0.000000,0.000000,0.046000,-0.596000,0.800000
0.225000,225.000000,0.000000,0.100000,0.000000,0.046000,-0.596000,0.802000,0.000000,0.100000,0.000000,0.046000,-0.596000,0.802000
0.226000,226.000000,0.000000,0.200000,0.000000,0.046000,-0.596000,0.802000,0.000000,0.200000,0.000000,0.046000,-0.596000,0.802000
0.227000,227.000000,0.000000,0.000000,0.000000,0.046000,-0.596000,0.802000,0.000000,0.000000,0.000000,0.046000,-0.596000,0.802000
0.228000,228.000000,0.000000,-0.100000,0.100000,0.046000,-0.596000,0.802000,0.000000,-0.100000,0.100000,0.046000,-0.596000,0.802000
0.229000,229.000000,0.000000,0.000000,0.200000,0.046000,-0.596000,0.800000,0.000000,0.000000,0.200000,0.046000,-0.596000,0.800000
0.230000,230.000000,0.000000,0.100000,0.100000,0.046000,-0.596000,0.798000,0.000000,0.100000,0.100000,0.046000,-0.596000,0.798000
0.231000,231.000000,0.000000,0.100000,0.000000,0.046000,-0.596000,0.798000,0.000000,0.100000,0.000000,0.046000,-0.596000,0.798000
0.232000,232.000000,0.000000,0.000000,0.000000,0.046000,-0.596000,0.798000,0.000000,0.000000,0.000000,0.046000,-0.596000,0.798000
0.233000,233.000000,0.000000,0.000000,-0.100000,0.046000,-0.596000,0.798000,0.000000,0.000000,-0.100000,0.046000,-0.596000,0.798000
0.234000,234.000000,-0.100000,0.000000,0.000000,0.048000,-0.596000,0.798000,-0.100000,0.000000,0.000000,0.048000,-0.596000,0.798000
0.235000,235.000000,0.000000,0.100000,0.000000,0.048000,-0.594000,0.800000,0.000000,0.100000,0.000000,0.048000,-0.594000,0.800000
0.236000,236.000000,0.100000,0.100000,0.100000,0.046000,-0.592000,0.800000,0.100000,0.100000,0.100000,0.046000,-0.592000,0.800000
0.237000,237.000000,0.100000,0.000000,0.000000,0.046000,-0.592000,0.800000,0.100000,0.000000,0.000000,0.046000,-0.592000,0.800000
0.238000,238.000000,0.100000,0.000000,-0.100000,0.046000,-0.592000,0.800000,0.100000,0.000000,-0.100000,0.046000,-0.592000,0.800000
0.239000,239.000000,0.100000,0.000000,-0.100000,0.046000,-0.594000,0.800000,0.100000,0.000000,-0.100000,0.046000,-0.594000,0.800000
0.240000,240.000000,0.000000,0.000000,-0.100000,0.046000,-0.596000,0.800000,0.000000,0.000000,-0.100000,0.046000,-0.596000,0.800000
0.241000,241.000000,0.100000,0.000000,-0.100000,0.046000,-0.596000,0.802000,0.100000,0.000000,-0.100000,0.046000,-0.596000,0.802000
0.242000,242.000000,0.100000,-0.100000,-0.200000,0.046000,-0.596000,0.802000,0.100000,-0.100000,-0.200000,0.046000,-0.596000,0.802000
0.243000,243.000000,0.000000,0.000000,-0.100000,0.046000,-0.596000,0.802000,0.000000,0.000000,-0.100000,0.046000,-0.596000,0.802000
0.244000,244.000000,-0.100000,0.100000,0.000000,0.046000,-0.594000,0.802000,-0.100000,0.100000,0.000000,0.046000,-0.594000,0.802000
0.245000,245.000000,0.000000,0.100000,0.100000,0.046000,-0.596000,0.802000,0.000000,0.100000,0.100000,0.046000,-0.596000,0.802000
0.246000,246.000000,0.000000,0.000000,0.100000,0.046000,-0.596000,0.802000,0.000000,0.000000,0.100000,0.046000,-0.596000,0.802000
0.247000,247.000000,0.000000,-0.100000,0.100000,0.046000,-0.596000,0.800000,0.000000,-0.100000,0.100000,0.046000,-0.596000,0.800000
0.248000,248.000000,0.000000,-0.100000,0.100000,0.046000,-0.596000,0.800000,0.000000,-0.100000,0.100000,0.046000,-0.596000,0.800000
0.249000,249.000000,0.000000,-0.100000,0.000000,0.046000,-0.596000,0.800000,0.000000,-0.100000,0.000000,0.046000,-0.596000,0.800000
0.250000,250.000000,0.000000,0.000000,0.000000,0.046000,-0.596000,0.800000,0.000000,0.000000,0.000000,0.046000,-0.596000,0.800000
0.251000,251.000000,-0.100000,0.100000,-0.100000,0.046000,-0.596000,0.800000,-0.100000,0.100000,-0.100000,0.046000,-0.596000,0.800000
0.252000,252.000000,-0.100000,0.200000,-0.100000,0.046000,-0.596000,0.800000,-0.100000,0.200000,-0.100000,0.046000,-0.596000,0.800000
0.253000,253.000000,-0.200000,0.200000,0.100000,0.046000,-0.598000,0.800000,-0.200000,0.200000,0.100000,0.046000,-0.598000,0.800000
0.254000,254.000000,-0.100000,0.000000,0.200000,0.046000,-0.598000,0.802000,-0.100000,0.000000,0.200000,0.046000,-0.598000,0.802000
0.255000,255.000000,0.000000,-0.100000,0.000000,0.046000,-0.598000,0.800000,0.000000,-0.100000,0.000000,0.046000,-0.598000,0.800000
0.256000,256.000000,0.100000,-0.100000,-0.100000,0.046000,-0.598000,0.800000,0.100000,-0.100000,-0.100000,0.046000,-0.598000,0.800000
0.257000,257.000000,0.000000,-0.100000,-0.100000,0.046000,-0.598000,0.802000,0.000000,-0.100000,-0.100000,0.046000,-0.598000,0.802000
0.258000,258.000000,0.000000,-0.100000,0.000000,0.046000,-0.598000,0.802000,0.000000,-0.100000,0.000000,0.046000,-0.598000,0.802000
0.259000,259.000000,0.000000,0.000000,0.100000,0.046000,-0.598000,0.802000,0.000000,0.000000,0.100000,0.046000,-0.598000,0.802000
0.260000,260.000000,0.000000,0.100000,0.000000,0.046000,-0.598000,0.800000,0.000000,0.100000,0.000000,0.046000,-0.598000,0.800000
0.261000,261.000000,0.000000,0.100000,0.000000,0.046000,-0.598000,0.800000,0.000000,0.100000,0.000000,0.046000,-0.598000,0.800000
0.262000,262.000000,0.000000,0.100000,-0.100000,0.046000,-0.598000,0.802000,0.000000,0.100000,-0.100000,0.046000,-0.598000,0.802000
0.263000,263.000000,0.000000,0.000000,-0.100000,0.046000,-0.598000,0.802000,0.000000,0.000000,-0.100000,0.046000,-0.598000,0.802000
0.264000,264.000000,0.100000,0.000000,0.000000,0.046000,-0.598000,0.802000,0.100000,0.000000,0.000000,0.046000,-0.598000,0.802000
0.265000,265.000000,0.100000,0.000000,0.000000,0.046000,-0.598000,0.802000,0.100000,0.000000,0.000000,0.046000,-0.598000,0.802000
0.266000,266.000000,0.100000,0.100000,0.000000,0.046000,-0.598000,0.802000,0.100000,0.100000,0.000000,0.046000,-0.598000,0.802000
0.267000,267.000000,0.000000,-0.100000,-0.100000,0.046000,-0.598000,0.802000,0.000000,-0.100000,-0.100000,0.046000,-0.598000,0.802000
0.268000,268.000000,0.000000,-0.200000,-0.100000,0.046000,-0.598000,0.804000,0.000000,-0.200000,-0.100000,0.046000,-0.598000,0.804000
0.269000,269.000000,0.000000,0.000000,0.000000,0.046000,-0.598000,0.802000,0.000000,0.000000,0.000000,0.046000,-0.598000,0.802000
0.270000,270.000000,0.000000,0.100000,0.000000,0.044000,-0.596000,0.802000,0.000000,0.100000,0.000000,0.044000,-0.596000,0.802000
0.271000,271.000000,-0.100000,0.200000,0.000000,0.046000,-0.596000,0.800000,-0.100000,0.200000,0.000000,0.046000,-0.596000,0.800000
0.272000,272.000000,0.000000,0.000000,0.000000,0.046000,-0.596000,0.802000,0.000000,0.000000,0.000000,0.046000,-0.596000,0.802000
0.273000,273.000000,0.100000,0.000000,0.000000,0.046000,-0.598000,0.802000,0.100000,0.000000,0.000000,0.046000,-0.598000,0.802000
0.274000,274.000000,-0.100000,0.000000,-0.100000,0.046000,-0.598000,0.802000,-0.100000,0.000000,-0.100000,0.046000,-0.598000,0.802000
0.275000,275.000000,-0.100000,0.000000,-0.100000,0.046000,-0.596000,0.802000,-0.100000,0.000000,-0.100000,0.046000,-0.596000,0.802000
0.276000,276.000000,0.000000,-0.100000,-0.100000,0.044000,-0.594000,0.802000,0.000000,-0.100000,-0.100000,0.044000,-0.594000,0.802000
0.277000,277.000000,0.100000,-0.100000,-0.100000,0.044000,-0.594000,0.802000,0.100000,-0.100000,-0.100000,0.044000,-0.594000,0.802000
0.278000,278.000000,0.000000,-0.100000,0.000000,0.044000,-0.596000,0.802000,0.000000,-0.100000,0.000000,0.044000,-0.596000,0.802000
0.279000,279.000000,0.000000,0.000000,0.100000,0.046000,-0.596000,0.800000,0.000000,0.000000,0.100000,0.046000,-0.596000,0.800000
0.280000,280.000000,0.100000,0.000000,0.100000,0.046000,-0.596000,0.800000,0.100000,0.000000,0.100000,0.046000,-0.596000,0.800000
0.281000,281.000000,0.100000,0.000000,0.000000,0.046000,-0.596000,0.800000,0.100000,0.000000,0.000000,0.046000,-0.596000,0.800000
0.282000,282.000000,-0.100000,-0.100000,-0.100000,0.046000,-0.598000,0.800000,-0.100000,-0.100000,-0.100000,0.046000,-0.598000,0.800000
0.283000,283.000000,-0.200000,-0.100000,-0.100000,0.046000,-0.598000,0.800000,-0.200000,-0.100000,-0.100000,0.046000,-0.598000,0.800000
0.284000,284.000000,-0.100000,0.000000,-0.100000,0.046000,-0.598000,0.800000,-0.100000,0.000000,-0.100000,0.046000,-0.598000,0.800000
0.285000,285.000000,0.000000,0.000000,0.000000,0.044000,-0.598000,0.800000,0.000000,0.000000,0.000000,0.044000,-0.598000,0.800000
0.286000,286.000000,-0.100000,0.000000,0.000000,0.046000,-0.600000,0.802000,-0.100000,0.000000,0.000000,0.046000,-0.600000,0.802000
0.287000,287.000000,-0.100000,-0.100000,0.000000,0.046000,-0.600000,0.802000,-0.100000,-0.100000,0.000000,0.046000,-0.600000,0.802000
0.288000,288.000000,0.000000,-0.100000,0.000000,0.046000,-0.598000,0.802000,0.000000,-0.100000,0.000000,0.046000,-0.598000,0.802000
0.289000,289.000000,0.100000,0.000000,-0.100000,0.046000,-0.598000,0.802000,0.100000,0.000000,-0.100000,0.046000,-0.598000,0.802000
0.290000,290.000000,0.200000,0.000000,0.000000,0.046000,-0.598000,0.802000,0.200000,0.000000,0.000000,0.046000,-0.598000,0.802000
0.291000,291.000000,0.100000,0.000000,0.000000,0.046000,-0.598000,0.804000,0.100000,0.000000,0.000000,0.046000,-0.598000,0.804000
0.292000,292.000000,0.000000,-0.100000,0.000000,0.046000,-0.598000,0.804000,0.000000,-0.100000,0.000000,0.046000,-0.598000,0.804000
0.293000,293.000000,-0.200000,0.000000,-0.100000,0.046000,-0.598000,0.802000,-0.200000,0.000000,-0.100000,0.046000,-0.598000,0.802000
0.294000,294.000000,-0.100000,0.000000,-0.100000,0.046000,-0.596000,0.802000,-0.100000,0.000000,-0.100000,0.046000,-0.596000,0.802000
0.295000,295.000000,0.000000,-0.100000,0.000000,0.046000,-0.596000,0.800000,0.000000,-0.100000,0.000000,0.046000,-0.596000,0.800000
0.296000,296.000000,0.100000,0.000000,0.000000,0.046000,-0.596000,0.800000,0.100000,0.000000,0.000000,0.046000,-0.596000,0.800000
0.297000,297.000000,0.100000,0.100000,0.000000,0.046000,-0.596000,0.802000,0.100000,0.100000,0.000000,0.046000,-0.596000,0.802000
0.298000,298.000000,-0.100000,0.100000,0.000000,0.044000,-0.596000,0.802000,-0.100000,0.100000,0.000000,0.044000,-0.596000,0.802000
0.299000,299.000000,-0.100000,-0.100000,-0.100000,0.044000,-0.596000,0.802000,-0.100000,-0.100000,-0.100000,0.044000,-0.596000,0.802000
0.300000,300.000000,0.000000,-0.100000,-0.100000,0.046000,-0.598000,0.802000,0.000000,-0.100000,-0.100000,0.046000,-0.598000,0.802000
0.301000,301.000000,0.100000,0.000000,-0.100000,0.046000,-0.596000,0.800000,0.100000,0.000000,-0.100000,0.046000,-0.596000,0.800000
0.302000,302.000000,0.100000,0.100000,0.000000,0.044000,-0.596000,0.800000,0.100000,0.100000,0.000000,0.044000,-0.596000,0.800000
0.303000,303.000000,0.000000,0.000000,0.000000,0.044000,-0.596000,0.800000,0.000000,0.000000,0.000000,0.044000,-0.596000,0.800000
0.304000,304.000000,0.100000,-0.100000,-0.100000,0.046000,-0.596000,0.800000,0.100000,-0.100000,-0.100000,0.046000,-0.596000,0.800000
0.305000,305.000000,0.100000,0.000000,-0.200000,0.046000,-0.596000,0.800000,0.100000,0.000000,-0.200000,0.046000,-0.596000,0.800000
0.306000,306.000000,0.000000,0.000000,-0.300000,0.046000,-0.596000,0.800000,0.000000,0.000000,-0.300000,0.046000,-0.596000,0.800000
0.307000,307.000000,-0.100000,0.000000,-0.100000,0.048000,-0.596000,0.800000,-0.100000,0.000000,-0.100000,0.048000,-0.596000,0.800000
0.308000,308.000000,-0.100000,-0.100000,0.100000,0.046000,-0.596000,0.800000,-0.100000,-0.100000,0.100000,0.046000,-0.596000,0.800000
0.309000,309.000000,0.000000,0.000000,0.100000,0.046000,-0.596000,0.800000,0.000000,0.000000,0.100000,0.046000,-0.596000,0.800000
0.310000,310.000000,0.000000,0.000000,0.100000,0.046000,-0.596000,0.800000,0.000000,0.000000,0.100000,0.046000,-0.596000,0.800000
0.311000,311.000000,0.000000,0.000000,0.100000,0.046000,-0.596000,0.800000,0.000000,0.000000,0.100000,0.046000,-0.596000,0.800000
0.312000,312.000000,0.000000,0.000000,0.100000,0.046000,-0.596000,0.802000,0.000000,0.000000,0.100000,0.046000,-0.596000,0.802000
0.313000,313.000000,0.000000,0.000000,0.100000,0.046000,-0.596000,0.802000,0.000000,0.000000,0.100000,0.046000,-0.596000,0.802000
0.314000,314.000000,-0.100000,-0.100000,0.000000,0.044000,-0.596000,0.802000,-0.100000,-0.100000,0.000000,0.044000,-0.596000,0.802000
0.315000,315.000000,-0.100000,-0.100000,0.000000,0.044000,-0.596000,0.802000,-0.100000,-0.100000,0.000000,0.044000,-0.596000,0.802000
0.316000,316.000000,0.000000,0.000000,0.000000,0.044000,-0.596000,0.802000,0.000000,0.000000,0.000000,0.044000,-0.596000,0.802000
0.317000,317.000000,0.000000,0.100000,0.100000,0.044000,-0.596000,0.802000,0.000000,0.100000,0.100000,0.044000,-0.596000,0.802000
0.318000,318.000000,0.000000,0.000000,0.000000,0.046000,-0.598000,0.802000,0.000000,0.000000,0.000000,0.046000,-0.598000,0.802000
0.319000,319.000000,0.100000,-0.100000,0.000000,0.046000,-0.596000,0.802000,0.100000,-0.100000,0.000000,0.046000,-0.596000,0.802000
0.320000,320.000000,0.200000,0.000000,0.000000,0.048000,-0.596000,0.800000,0.200000,0.000000,0.000000,0.048000,-0.596000,0.800000
0.321000,321.000000,0.100000,0.000000,0.000000,0.046000,-0.594000,0.802000,0.100000,0.000000,0.000000,0.046000,-0.594000,0.802000
0.322000,322.000000,0.000000,0.100000,0.100000,0.046000,-0.594000,0.802000,0.000000,0.100000,0.100000,0.046000,-0.594000,0.802000
0.323000,323.000000,-0.100000,0.100000,0.100000,0.046000,-0.596000,0.802000,-0.100000,0.100000,0.100000,0.046000,-0.596000,0.802000
0.324000,324.000000,0.000000,0.100000,0.000000,0.046000,-0.596000,0.802000,0.000000,0.100000,0.000000,0.046000,-0.596000,0.802000
0.325000,325.000000,0.000000,0.000000,0.000000,0.046000,-0.596000,0.802000,0.000000,0.000000,0.000000,0.046000,-0.596000,0.802000
0.326000,326.000000,0.000000,-0.100000,0.000000,0.046000,-0.596000,0.802000,0.000000,-0.100000,0.000000,0.046000,-0.596000,0.802000
0.327000,327.000000,0.000000,-0.100000,0.100000,0.046000,-0.596000,0.800000,0.000000,-0.100000,0.100000,0.046000,-0.596000,0.800000
0.328000,328.000000,-0.100000,0.000000,0.200000,0.046000,-0.596000,0.800000,-0.100000,0.000000,0.200000,0.046000,-0.596000,0.800000
0.329000,329.000000,-0.100000,0.000000,0.200000,0.046000,-0.596000,0.800000,-0.100000,0.000000,0.200000,0.046000,-0.596000,0.800000
0.330000,330.000000,0.000000,0.000000,0.100000,0.046000,-0.596000,0.802000,0.000000,0.000000,0.100000,0.046000,-0.596000,0.802000
0.331000,331.000000,0.100000,0.000000,0.100000,0.046000,-0.594000,0.802000,0.100000,0.000000,0.100000,0.046000,-0.594000,0.802000
0.332000,332.000000,0.000000,0.000000,0.000000,0.046000,-0.596000,0.802000,0.000000,0.000000,0.000000,0.046000,-0.596000,0.802000
0.333000,333.000000,-0.100000,-0.100000,0.000000,0.046000,-0.596000,0.802000,-0.100000,-0.100000,0.000000,0.046000,-0.596000,0.802000
0.334000,334.000000,-0.100000,0.000000,0.000000,0.046000,-0.594000,0.802000,-0.100000,0.000000,0.000000,0.046000,-0.594000,0.802000
0.335000,335.000000,-0.100000,0.000000,0.000000,0.046000,-0.594000,0.802000,-0.100000,0.000000,0.000000,0.046000,-0.594000,0.802000
0.336000,336.000000,-0.100000,0.000000,-0.100000,0.046000,-0.594000,0.802000,-0.100000,0.000000,-0.100000,0.046000,-0.594000,0.802000
0.337000,337.000000,0.000000,-0.100000,-0.100000,0.046000,-0.594000,0.800000,0.000000,-0.100000,-0.100000,0.046000,-0.594000,0.800000
0.338000,338.000000,0.100000,-0.100000,-0.100000,0.046000,-0.592000,0.800000,0.100000,-0.100000,-0.100000,0.046000,-0.592000,0.800000
0.339000,339.000000,0.100000,0.000000,0.000000,0.046000,-0.594000,0.802000,0.100000,0.000000,0.000000,0.046000,-0.594000,0.802000
0.340000,340.000000,-0.100000,0.100000,0.100000,0.046000,-0.596000,0.800000,-0.100000,0.100000,0.100000,0.046000,-0.596000,0.800000
0.341000,341.000000,-0.200000,0.100000,0.000000,0.046000,-0.596000,0.800000,-0.200000,0.100000,0.000000,0.046000,-0.596000,0.800000
0.342000,342.000000,-0.200000,0.100000,0.000000,0.046000,-0.596000,0.798000,-0.200000,0.100000,0.000000,0.046000,-0.596000,0.798000
0.343000,343.000000,-0.100000,0.000000,0.000000,0.046000,-0.596000,0.798000,-0.100000,0.000000,0.000000,0.046000,-0.596000,0.798000
0.344000,344.000000,0.000000,0.000000,0.000000,0.046000,-0.596000,0.798000,0.000000,0.000000,0.000000,0.046000,-0.596000,0.798000
0.345000,345.000000,0.100000,0.000000,0.000000,0.046000,-0.598000,0.798000,0.100000,0.000000,0.000000,0.046000,-0.598000,0.798000
0.346000,346.000000,0.000000,0.000000,0.000000,0.046000,-0.598000,0.798000,0.000000,0.000000,0.000000,0.046000,-0.598000,0.798000
0.347000,347.000000,-0.100000,0.000000,0.100000,0.046000,-0.598000,0.800000,-0.100000,0.000000,0.100000,0.046000,-0.598000,0.800000
0.348000,348.000000,-0.100000,0.000000,0.200000,0.046000,-0.598000,0.800000,-0.100000,0.000000,0.200000,0.046000,-0.598000,0.800000
0.349000,349.000000,-0.100000,0.000000,0.100000,0.046000,-0.598000,0.800000,-0.100000,0.000000,0.100000,0.046000,-0.598000,0.800000
0.350000,350.000000,0.000000,0.000000,0.000000,0.046000,-0.598000,0.800000,0.000000,0.000000,0.000000,0.046000,-0.598000,0.800000
0.351000,351.000000,0.100000,-0.100000,0.000000,0.044000,-0.598000,0.800000,0.100000,-0.100000,0.000000,0.044000,-0.598000,0.800000
0.352000,352.000000,0.200000,-0.100000,0.100000,0.044000,-0.598000,0.800000,0.200000,-0.100000,0.100000,0.044000,-0.598000,0.800000
0.353000,353.000000,0.100000,0.000000,0.100000,0.046000,-0.598000,0.800000,0.100000,0.000000,0.100000,0.046000,-0.598000,0.800000
0.354000,354.000000,-0.100000,0.000000,0.000000,0.046000,-0.598000,0.800000,-0.100000,0.000000,0.000000,0.046000,-0.598000,0.800000
0.355000,355.000000,-0.100000,0.100000,0.000000,0.046000,-0.598000,0.800000,-0.100000,0.100000,0.000000,0.046000,-0.598000,0.800000
0.356000,356.000000,0.000000,0.000000,0.000000,0.046000,-0.598000,0.802000,0.000000,0.000000,0.000000,0.046000,-0.598000,0.802000
0.357000,357.000000,0.100000,-0.100000,0.000000,0.044000,-0.596000,0.802000,0.100000,-0.100000,0.000000,0.044000,-0.596000,0.802000
0.358000,358.000000,0.100000,-0.100000,0.000000,0.044000,-0.596000,0.802000,0.100000,-0.100000,0.000000,0.044000,-0.596000,0.802000
0.359000,359.000000,0.100000,0.000000,-0.100000,0.044000,-0.596000,0.802000,0.100000,0.000000,-0.100000,0.044000,-0.596000,0.802000
0.360000,360.000000,-0.100000,0.100000,-0.100000,0.044000,-0.596000,0.802000,-0.100000,0.100000,-0.100000,0.044000,-0.596000,0.802000
0.361000,361.000000,-0.100000,0.000000,0.000000,0.046000,-0.596000,0.802000,-0.100000,0.000000,0.000000,0.046000,-0.596000,0.802000
0.362000,362.000000,0.000000,-0.100000,0.100000,0.046000,-0.596000,0.800000,0.000000,-0.100000,0.100000,0.046000,-0.596000,0.800000
0.363000,363.000000,0.100000,-0.100000,0.100000,0.046000,-0.596000,0.800000,0.100000,-0.100000,0.100000,0.046000,-0.596000,0.800000
0.364000,364.000000,0.100000,0.000000,0.100000,0.046000,-0.594000,0.800000,0.100000,0.000000,0.100000,0.046000,-0.594000,0.800000
0.365000,365.000000,0.100000,0.000000,0.100000,0.046000,-0.594000,0.800000,0.100000,0.000000,0.100000,0.046000,-0.594000,0.800000
0.366000,366.000000,0.000000,-0.100000,0.000000,0.046000,-0.596000,0.802000,0.000000,-0.100000,0.000000,0.046000,-0.596000,0.802000
0.367000,367.000000,-0.100000,-0.100000,-0.100000,0.046000,-0.598000,0.802000,-0.100000,-0.100000,-0.100000,0.046000,-0.598000,0.802000
0.368000,368.000000,0.000000,0.000000,-0.100000,0.046000,-0.598000,0.802000,0.000000,0.000000,-0.100000,0.046000,-0.598000,0.802000
0.369000,369.000000,-0.100000,0.100000,-0.100000,0.046000,-0.598000,0.800000,-0.100000,0.100000,-0.100000,0.046000,-0.598000,0.800000
0.370000,370.000000,-0.100000,0.100000,0.000000,0.048000,-0.600000,0.800000,-0.100000,0.100000,0.000000,0.048000,-0.600000,0.800000
0.371000,371.000000,0.000000,0.100000,0.200000,0.046000,-0.598000,0.802000,0.000000,0.100000,0.200000,0.046000,-0.598000,0.802000
0.372000,372.000000,0.000000,0.100000,0.300000,0.046000,-0.598000,0.802000,0.000000,0.100000,0.300000,0.046000,-0.598000,0.802000
0.373000,373.000000,0.000000,0.000000,0.100000,0.046000,-0.598000,0.802000,0.000000,0.000000,0.100000,0.046000,-0.598000,0.802000
0.374000,374.000000,0.000000,0.000000,-0.100000,0.044000,-0.598000,0.802000,0.000000,0.000000,-0.100000,0.044000,-0.598000,0.802000
0.375000,375.000000,0.100000,0.000000,-0.100000,0.044000,-0.596000,0.802000,0.100000,0.000000,-0.100000,0.044000,-0.596000,0.802000
0.376000,376.000000,0.000000,0.000000,0.000000,0.046000,-0.596000,0.800000,0.000000,0.000000,0.000000,0.046000,-0.596000,0.800000
0.377000,377.000000,-0.100000,0.000000,0.100000,0.046000,-0.596000,0.800000,-0.100000,0.000000,0.100000,0.046000,-0.596000,0.800000
0.378000,378.000000,-0.200000,0.000000,0.200000,0.046000,-0.596000,0.800000,-0.200000,0.000000,0.200000,0.046000,-0.596000,0.800000
0.379000,379.000000,-0.100000,0.000000,0.100000,0.046000,-0.594000,0.800000,-0.100000,0.000000,0.100000,0.046000,-0.594000,0.800000
0.380000,380.000000,0.100000,0.000000,0.100000,0.046000,-0.594000,0.802000,0.100000,0.000000,0.100000,0.046000,-0.594000,0.802000
0.381000,381.000000,0.000000,0.100000,0.100000,0.046000,-0.596000,0.804000,0.000000,0.100000,0.100000,0.046000,-0.596000,0.804000
0.382000,382.000000,-0.100000,0.100000,0.000000,0.046000,-0.596000,0.804000,-0.100000,0.100000,0.000000,0.046000,-0.596000,0.804000
0.383000,383.000000,-0.100000,0.100000,-0.100000,0.046000,-0.596000,0.802000,-0.100000,0.100000,-0.100000,0.046000,-0.596000,0.802000
0.384000,384.000000,0.000000,0.100000,0.000000,0.046000,-0.596000,0.802000,0.000000,0.100000,0.000000,0.046000,-0.596000,0.802000
0.385000,385.000000,0.000000,0.100000,0.000000,0.046000,-0.596000,0.802000,0.000000,0.100000,0.000000,0.046000,-0.596000,0.802000
0.386000,386.000000,0.000000,0.100000,0.100000,0.046000,-0.596000,0.802000,0.000000,0.100000,0.100000,0.046000,-0.596000,0.802000
0.387000,387.000000,-0.200000,0.000000,0.100000,0.046000,-0.596000,0.802000,-0.200000,0.000000,0.100000,0.046000,-0.596000,0.802000
0.388000,388.000000,-0.200000,0.000000,0.200000,0.046000,-0.596000,0.802000,-0.200000,0.000000,0.200000,0.046000,-0.596000,0.802000
0.389000,389.000000,-0.200000,0.000000,0.100000,0.046000,-0.596000,0.802000,-0.200000,0.000000,0.100000,0.046000,-0.596000,0.802000
0.390000,390.000000,0.000000,0.000000,0.100000,0.046000,-0.596000,0.802000,0.000000,0.000000,0.100000,0.046000,-0.596000,0.802000
0.391000,391.000000,0.200000,-0.100000,0.100000,0.046000,-0.596000,0.802000,0.200000,-0.100000,0.100000,0.046000,-0.596000,0.802000
0.392000,392.000000,0.100000,0.000000,0.100000,0.046000,-0.596000,0.802000,0.100000,0.000000,0.100000,0.046000,-0.596000,0.802000
0.393000,393.000000,-0.100000,0.000000,0.000000,0.046000,-0.596000,0.800000,-0.100000,0.000000,0.000000,0.046000,-0.596000,0.800000
0.394000,394.000000,-0.200000,0.000000,-0.100000,0.046000,-0.596000,0.800000,-0.200000,0.000000,-0.100000,0.046000,-0.596000,0.800000
0.395000,395.000000,-0.200000,0.000000,-0.200000,0.046000,-0.596000,0.800000,-0.200000,0.000000,-0.200000,0.046000,-0.596000,0.800000
0.396000,396.000000,0.000000,0.100000,-0.100000,0.046000,-0.596000,0.800000,0.000000,0.100000,-0.100000,0.046000,-0.596000,0.800000
0.397000,397.000000,0.100000,0.200000,0.000000,0.046000,-0.596000,0.802000,0.100000,0.200000,0.000000,0.046000,-0.596000,0.802000
0.398000,398.000000,0.100000,0.100000,0.100000,0.046000,-0.594000,0.802000,0.100000,0.100000,0.100000,0.046000,-0.594000,0.802000
0.399000,399.000000,0.000000,0.000000,0.100000,0.046000,-0.596000,0.802000,0.000000,0.000000,0.100000,0.046000,-0.596000,0.802000
0.400000,400.000000,-0.100000,0.000000,0.100000,0.046000,-0.596000,0.802000,-0.100000,0.000000,0.100000,0.046000,-0.596000,0.802000
0.401000,401.000000,0.000000,0.100000,0.000000,0.046000,-0.596000,0.800000,0.000000,0.100000,0.000000,0.046000,-0.596000,0.800000
0.402000,402.000000,0.000000,0.000000,-0.100000,0.048000,-0.596000,0.800000,0.000000,0.000000,-0.100000,0.048000,-0.596000,0.800000
0.403000,403.000000,0.000000,-0.100000,0.100000,0.048000,-0.596000,0.800000,0.000000,-0.100000,0.100000,0.048000,-0.596000,0.800000
0.404000,404.000000,0.000000,-0.100000,0.200000,0.048000,-0.598000,0.798000,0.000000,-0.100000,0.200000,0.048000,-0.598000,0.798000
0.405000,405.000000,0.000000,0.000000,0.100000,0.046000,-0.598000,0.798000,0.000000,0.000000,0.100000,0.046000,-0.598000,0.798000
0.406000,406.000000,0.000000,0.000000,0.000000,0.046000,-0.598000,0.798000,0.000000,0.000000,0.000000,0.046000,-0.598000,0.798000
0.407000,407.000000,0.000000,0.000000,0.000000,0.046000,-0.598000,0.800000,0.000000,0.000000,0.000000,0.046000,-0.598000,0.800000
0.408000,408.000000,0.100000,-0.100000,-0.100000,0.046000,-0.598000,0.800000,0.100000,-0.100000,-0.100000,0.046000,-0.598000,0.800000
0.409000,409.000000,0.100000,-0.100000,-0.100000,0.046000,-0.598000,0.800000,0.100000,-0.100000,-0.100000,0.046000,-0.598000,0.800000
0.410000,410.000000,0.100000,0.000000,0.000000,0.046000,-0.598000,0.802000,0.100000,0.000000,0.000000,0.046000,-0.598000,0.802000
0.411000,411.000000,0.000000,0.100000,0.000000,0.048000,-0.598000,0.802000,0.000000,0.100000,0.000000,0.048000,-0.598000,0.802000
0.412000,412.000000,-0.100000,0.000000,0.100000,0.048000,-0.596000,0.802000,-0.100000,0.000000,0.100000,0.048000,-0.596000,0.802000
0.413000,413.000000,-0.100000,0.000000,0.100000,0.048000,-0.596000,0.800000,-0.100000,0.000000,0.100000,0.048000,-0.596000,0.800000
0.414000,414.000000,0.000000,0.000000,0.000000,0.048000,-0.594000,0.802000,0.000000,0.000000,0.000000,0.048000,-0.594000,0.802000
0.415000,415.000000,0.100000,0.000000,0.000000,0.046000,-0.596000,0.802000,0.100000,0.000000,0.000000,0.046000,-0.596000,0.802000
0.416000,416.000000,0.100000,0.000000,0.000000,0.046000,-0.596000,0.802000,0.100000,0.000000,0.000000,0.046000,-0.596000,0.802000
0.417000,417.000000,0.000000,0.000000,0.100000,0.048000,-0.594000,0.802000,0.000000,0.000000,0.100000,0.048000,-0.594000,0.802000
0.418000,418.000000,0.000000,0.000000,0.100000,0.048000,-0.596000,0.800000,0.000000,0.000000,0.100000,0.048000,-0.596000,0.800000
0.419000,419.000000,-0.100000,-0.100000,-0.100000,0.046000,-0.596000,0.798000,-0.100000,-0.100000,-0.100000,0.046000,-0.596000,0.798000
0.420000,420.000000,-0.100000,-0.300000,-0.200000,0.046000,-0.596000,0.798000,-0.100000,-0.300000,-0.200000,0.046000,-0.596000,0.798000
0.421000,421.000000,0.000000,-0.200000,-0.100000,0.044000,-0.596000,0.800000,0.000000,-0.200000,-0.100000,0.044000,-0.596000,0.800000
0.422000,422.000000,0.000000,0.000000,0.000000,0.044000,-0.596000,0.800000,0.000000,0.000000,0.000000,0.044000,-0.596000,0.800000
0.423000,423.000000,0.000000,0.200000,0.100000,0.046000,-0.596000,0.800000,0.000000,0.200000,0.100000,0.046000,-0.596000,0.800000
0.424000,424.000000,-0.100000,0.100000,0.100000,0.046000,-0.596000,0.800000,-0.100000,0.100000,0.100000,0.046000,-0.596000,0.800000
0.425000,425.000000,0.000000,0.000000,0.000000,0.046000,-0.596000,0.802000,0.000000,0.000000,0.000000,0.046000,-0.596000,0.802000
0.426000,426.000000,0.000000,0.000000,0.000000,0.046000,-0.596000,0.802000,0.000000,0.000000,0.000000,0.046000,-0.596000,0.802000
0.427000,427.000000,0.000000,0.000000,0.100000,0.046000,-0.596000,0.802000,0.000000,0.000000,0.100000,0.046000,-0.596000,0.802000
0.428000,428.000000,-0.100000,0.000000,0.100000,0.046000,-0.598000,0.800000,-0.100000,0.000000,0.100000,0.046000,-0.598000,0.800000
0.429000,429.000000,-0.200000,0.000000,0.000000,0.046000,-0.598000,0.800000,-0.200000,0.000000,0.000000,0.046000,-0.598000,0.800000
0.430000,430.000000,-0.200000,0.000000,0.000000,0.046000,-0.598000,0.800000,-0.200000,0.000000,0.000000,0.046000,-0.598000,0.800000
0.431000,431.000000,-0.100000,0.000000,0.100000,0.046000,-0.596000,0.802000,-0.100000,0.000000,0.100000,0.046000,-0.596000,0.802000
0.432000,432.000000,0.000000,0.000000,0.100000,0.046000,-0.594000,0.802000,0.000000,0.000000,0.100000,0.046000,-0.594000,0.802000
0.433000,433.000000,0.000000,-0.100000,0.000000,0.046000,-0.594000,0.802000,0.000000,-0.100000,0.000000,0.046000,-0.594000,0.802000
0.434000,434.000000,0.000000,-0.100000,0.000000,0.046000,-0.594000,0.802000,0.000000,-0.100000,0.000000,0.046000,-0.594000,0.802000
0.435000,435.000000,0.000000,-0.100000,0.100000,0.046000,-0.596000,0.802000,0.000000,-0.100000,0.100000,0.046000,-0.596000,0.802000
0.436000,436.000000,0.000000,-0.100000,0.200000,0.046000,-0.596000,0.802000,0.000000,-0.100000,0.200000,0.046000,-0.596000,0.802000
0.437000,437.000000,0.000000,-0.100000,0.100000,0.046000,-0.594000,0.802000,0.000000,-0.100000,0.100000,0.046000,-0.594000,0.802000
0.438000,438.000000,-0.100000,-0.100000,0.000000,0.044000,-0.594000,0.802000,-0.100000,-0.100000,0.000000,0.044000,-0.594000,0.802000
0.439000,439.000000,-0.100000,0.100000,0.000000,0.044000,-0.594000,0.800000,-0.100000,0.100000,0.000000,0.044000,-0.594000,0.800000
0.440000,440.000000,0.000000,0.100000,0.100000,0.044000,-0.594000,0.800000,0.000000,0.100000,0.100000,0.044000,-0.594000,0.800000
0.441000,441.000000,0.000000,0.000000,0.000000,0.046000,-0.594000,0.800000,0.000000,0.000000,0.000000,0.046000,-0.594000,0.800000
0.442000,442.000000,0.100000,-0.100000,-0.100000,0.046000,-0.596000,0.800000,0.100000,-0.100000,-0.100000,0.046000,-0.596000,0.800000
0.443000,443.000000,0.100000,0.000000,-0.100000,0.046000,-0.596000,0.800000,0.100000,0.000000,-0.100000,0.046000,-0.596000,0.800000
0.444000,444.000000,0.000000,0.100000,0.000000,0.046000,-0.596000,0.800000,0.000000,0.100000,0.000000,0.046000,-0.596000,0.800000
0.445000,445.000000,0.000000,0.100000,0.100000,0.046000,-0.596000,0.800000,0.000000,0.100000,0.100000,0.046000,-0.596000,0.800000
0.446000,446.000000,-0.100000,0.100000,0.100000,0.046000,-0.596000,0.800000,-0.100000,0.100000,0.100000,0.046000,-0.596000,0.800000
0.447000,447.000000,0.000000,0.000000,0.100000,0.046000,-0.598000,0.800000,0.000000,0.000000,0.100000,0.046000,-0.598000,0.800000
0.448000,448.000000,0.000000,0.000000,0.000000,0.044000,-0.598000,0.800000,0.000000,0.000000,0.000000,0.044000,-0.598000,0.800000
0.449000,449.000000,0.100000,-0.100000,0.000000,0.044000,-0.596000,0.800000,0.100000,-0.100000,0.000000,0.044000,-0.596000,0.800000
0.450000,450.000000,0.100000,-0.100000,0.000000,0.046000,-0.596000,0.800000,0.100000,-0.100000,0.000000,0.046000,-0.596000,0.800000
0.451000,451.000000,0.000000,-0.100000,0.100000,0.046000,-0.596000,0.800000,0.000000,-0.100000,0.100000,0.046000,-0.596000,0.800000
0.452000,452.000000,0.000000,0.000000,0.000000,0.046000,-0.596000,0.800000,0.000000,0.000000,0.000000,0.046000,-0.596000,0.800000
0.453000,453.000000,-0.100000,0.000000,0.000000,0.046000,-0.596000,0.800000,-0.100000,0.000000,0.000000,0.046000,-0.596000,0.800000
0.454000,454.000000,-0.100000,0.000000,0.100000,0.046000,-0.596000,0.800000,-0.100000,0.000000,0.100000,0.046000,-0.596000,0.800000
0.455000,455.000000,0.100000,0.000000,0.100000,0.046000,-0.596000,0.800000,0.100000,0.000000,0.100000,0.046000,-0.596000,0.800000
0.456000,456.000000,0.100000,0.000000,0.000000,0.046000,-0.596000,0.800000,0.100000,0.000000,0.000000,0.046000,-0.596000,0.800000
0.457000,457.000000,0.100000,-0.100000,0.000000,0.046000,-0.598000,0.802000,0.100000,-0.100000,0.000000,0.046000,-0.598000,0.802000
0.458000,458.000000,0.000000,-0.100000,0.000000,0.046000,-0.598000,0.802000,0.000000,-0.100000,0.000000,0.046000,-0.598000,0.802000
0.459000,459.000000,-0.100000,0.000000,0.000000,0.046000,-0.600000,0.802000,-0.100000,0.000000,0.000000,0.046000,-0.600000,0.802000
0.460000,460.000000,-0.100000,0.000000,0.100000,0.046000,-0.598000,0.802000,-0.100000,0.000000,0.100000,0.046000,-0.598000,0.802000
0.461000,461.000000,0.000000,-0.100000,0.000000,0.046000,-0.596000,0.800000,0.000000,-0.100000,0.000000,0.046000,-0.596000,0.800000
0.462000,462.000000,0.100000,-0.100000,-0.100000,0.046000,-0.594000,0.800000,0.100000,-0.100000,-0.100000,0.046000,-0.594000,0.800000
0.463000,463.000000,0.200000,0.000000,0.000000,0.046000,-0.596000,0.800000,0.200000,0.000000,0.000000,0.046000,-0.596000,0.800000
0.464000,464.000000,0.100000,0.100000,0.100000,0.046000,-0.598000,0.802000,0.100000,0.100000,0.100000,0.046000,-0.598000,0.802000
0.465000,465.000000,-0.100000,0.000000,0.000000,0.046000,-0.598000,0.802000,-0.100000,0.000000,0.000000,0.046000,-0.598000,0.802000
0.466000,466.000000,-0.100000,0.000000,0.000000,0.046000,-0.598000,0.802000,-0.100000,0.000000,0.000000,0.046000,-0.598000,0.802000
0.467000,467.000000,-0.100000,0.100000,0.000000,0.046000,-0.598000,0.802000,-0.100000,0.100000,0.000000,0.046000,-0.598000,0.802000
0.468000,468.000000,0.000000,0.100000,0.100000,0.046000,-0.598000,0.802000,0.000000,0.100000,0.100000,0.046000,-0.598000,0.802000
0.469000,469.000000,0.200000,0.000000,0.200000,0.046000,-0.598000,0.802000,0.200000,0.000000,0.200000,0.046000,-0.598000,0.802000
0.470000,470.000000,0.200000,0.000000,0.100000,0.046000,-0.596000,0.802000,0.200000,0.000000,0.100000,0.046000,-0.596000,0.802000
0.471000,471.000000,0.100000,0.000000,0.000000,0.044000,-0.596000,0.802000,0.100000,0.000000,0.000000,0.044000,-0.596000,0.802000
0.472000,472.000000,0.100000,0.000000,-0.100000,0.044000,-0.596000,0.800000,0.100000,0.000000,-0.100000,0.044000,-0.596000,0.800000
0.473000,473.000000,0.100000,-0.100000,-0.100000,0.046000,-0.596000,0.800000,0.100000,-0.100000,-0.100000,0.046000,-0.596000,0.800000
0.474000,474.000000,0.100000,-0.100000,0.000000,0.046000,-0.594000,0.800000,0.100000,-0.100000,0.000000,0.046000,-0.594000,0.800000
0.475000,475.000000,0.000000,0.000000,0.000000,0.046000,-0.594000,0.800000,0.000000,0.000000,0.000000,0.046000,-0.594000,0.800000
0.476000,476.000000,-0.100000,0.100000,0.000000,0.046000,-0.594000,0.800000,-0.100000,0.100000,0.000000,0.046000,-0.594000,0.800000
0.477000,477.000000,0.000000,0.000000,-0.100000,0.046000,-0.596000,0.800000,0.000000,0.000000,-0.100000,0.046000,-0.596000,0.800000
0.478000,478.000000,0.100000,-0.100000,-0.100000,0.046000,-0.596000,0.800000,0.100000,-0.100000,-0.100000,0.046000,-0.596000,0.800000
0.479000,479.000000,0.100000,-0.100000,0.100000,0.046000,-0.596000,0.798000,0.100000,-0.100000,0.100000,0.046000,-0.596000,0.798000
0.480000,480.000000,0.100000,0.000000,0.200000,0.046000,-0.598000,0.800000,0.100000,0.000000,0.200000,0.046000,-0.598000,0.800000
0.481000,481.000000,0.100000,0.000000,0.100000,0.046000,-0.598000,0.800000,0.100000,0.000000,0.100000,0.046000,-0.598000,0.800000
0.482000,482.000000,0.000000,0.100000,-0.100000,0.046000,-0.598000,0.802000,0.000000,0.100000,-0.100000,0.046000,-0.598000,0.802000
0.483000,483.000000,0.000000,0.000000,-0.200000,0.046000,-0.598000,0.802000,0.000000,0.000000,-0.200000,0.046000,-0.598000,0.802000
0.484000,484.000000,0.000000,-0.100000,-0.100000,0.046000,-0.598000,0.802000,0.000000,-0.100000,-0.100000,0.046000,-0.598000,0.802000
0.485000,485.000000,0.000000,0.000000,0.000000,0.044000,-0.598000,0.800000,0.000000,0.000000,0.000000,0.044000,-0.598000,0.800000
0.486000,486.000000,0.000000,0.000000,0.000000,0.044000,-0.596000,0.798000,0.000000,0.000000,0.000000,0.044000,-0.596000,0.798000
0.487000,487.000000,0.100000,0.100000,0.000000,0.044000,-0.596000,0.798000,0.100000,0.100000,0.000000,0.044000,-0.596000,0.798000
0.488000,488.000000,0.000000,0.100000,0.000000,0.044000,-0.596000,0.798000,0.000000,0.100000,0.000000,0.044000,-0.596000,0.798000
0.489000,489.000000,0.000000,0.100000,0.000000,0.044000,-0.596000,0.798000,0.000000,0.100000,0.000000,0.044000,-0.596000,0.798000
0.490000,490.000000,-0.100000,0.100000,0.100000,0.044000,-0.594000,0.798000,-0.100000,0.100000,0.100000,0.044000,-0.594000,0.798000
0.491000,491.000000,-0.100000,0.100000,0.000000,0.044000,-0.592000,0.798000,-0.100000,0.100000,0.000000,0.044000,-0.592000,0.798000
0.492000,492.000000,-0.100000,0.000000,0.000000,0.046000,-0.592000,0.800000,-0.100000,0.000000,0.000000,0.046000,-0.592000,0.800000
0.493000,493.000000,-0.100000,-0.100000,0.100000,0.046000,-0.594000,0.802000,-0.100000,-0.100000,0.100000,0.046000,-0.594000,0.802000
0.494000,494.000000,-0.100000,-0.100000,0.100000,0.046000,-0.596000,0.802000,-0.100000,-0.100000,0.100000,0.046000,-0.596000,0.802000
0.495000,495.000000,0.000000,0.000000,0.100000,0.046000,-0.596000,0.804000,0.000000,0.000000,0.100000,0.046000,-0.596000,0.804000
0.496000,496.000000,0.000000,0.100000,0.000000,0.046000,-0.596000,0.804000,0.000000,0.100000,0.000000,0.046000,-0.596000,0.804000
0.497000,497.000000,0.000000,0.100000,-0.100000,0.046000,-0.596000,0.804000,0.000000,0.100000,-0.100000,0.046000,-0.596000,0.804000
0.498000,498.000000,0.000000,0.000000,0.000000,0.046000,-0.598000,0.804000,0.000000,0.000000,0.000000,0.046000,-0.598000,0.804000
0.499000,499.000000,0.100000,-0.100000,0.100000,0.046000,-0.598000,0.804000,0.100000,-0.100000,0.100000,0.046000,-0.598000,0.804000
0.500000,500.000000,-0.100000,0.000000,0.100000,0.046000,-0.598000,0.804000,-0.100000,0.000000,0.100000,0.046000,-0.598000,0.804000
0.501000,501.000000,-0.200000,0.100000,0.000000,0.048000,-0.598000,0.802000,-0.200000,0.100000,0.000000,0.048000,-0.598000,0.802000
0.502000,502.000000,-0.100000,0.000000,0.000000,0.046000,-0.598000,0.802000,-0.100000,0.000000,0.000000,0.046000,-0.598000,0.802000
0.503000,503.000000,0.000000,-0.100000,0.000000,0.046000,-0.598000,0.802000,0.000000,-0.100000,0.000000,0.046000,-0.598000,0.802000
0.504000,504.000000,0.100000,-0.200000,0.000000,0.046000,-0.598000,0.800000,0.100000,-0.200000,0.000000,0.046000,-0.598000,0.800000
0.505000,505.000000,0.000000,-0.200000,0.000000,0.046000,-0.596000,0.800000,0.000000,-0.200000,0.000000,0.046000,-0.596000,0.800000
0.506000,506.000000,-0.100000,-0.100000,0.000000,0.046000,-0.596000,0.798000,-0.100000,-0.100000,0.000000,0.046000,-0.596000,0.798000
0.507000,507.000000,0.000000,0.000000,0.000000,0.046000,-0.596000,0.798000,0.000000,0.000000,0.000000,0.046000,-0.596000,0.798000
0.508000,508.000000,0.100000,0.000000,0.000000,0.046000,-0.598000,0.798000,0.100000,0.000000,0.000000,0.046000,-0.598000,0.798000
0.509000,509.000000,0.100000,0.000000,0.000000,0.046000,-0.598000,0.798000,0.100000,0.000000,0.000000,0.046000,-0.598000,0.798000
0.510000,510.000000,-0.100000,-0.100000,0.100000,0.046000,-0.596000,0.798000,-0.100000,-0.100000,0.100000,0.046000,-0.596000,0.798000
0.511000,511.000000,-0.100000,-0.100000,0.100000,0.046000,-0.596000,0.800000,-0.100000,-0.100000,0.100000,0.046000,-0.596000,0.800000
0.512000,512.000000,-0.100000,-0.100000,0.000000,0.046000,-0.596000,0.800000,-0.100000,-0.100000,0.000000,0.046000,-0.596000,0.800000
0.513000,513.000000,-0.100000,0.100000,-0.100000,0.046000,-0.598000,0.800000,-0.100000,0.100000,-0.100000,0.046000,-0.598000,0.800000
0.514000,514.000000,-0.100000,0.100000,-0.100000,0.046000,-0.598000,0.800000,-0.100000,0.100000,-0.100000,0.046000,-0.598000,0.800000
0.515000,515.000000,-0.100000,0.100000,-0.100000,0.046000,-0.598000,0.800000,-0.100000,0.100000,-0.100000,0.046000,-0.598000,0.800000
0.516000,516.000000,0.000000,0.000000,-0.100000,0.046000,-0.596000,0.800000,0.000000,0.000000,-0.100000,0.046000,-0.596000,0.800000
0.517000,517.000000,0.000000,-0.200000,-0.100000,0.046000,-0.596000,0.802000,0.000000,-0.200000,-0.100000,0.046000,-0.596000,0.802000
0.518000,518.000000,0.000000,-0.200000,0.000000,0.048000,-0.596000,0.802000,0.000000,-0.200000,0.000000,0.048000,-0.596000,0.802000
0.519000,519.000000,0.100000,0.000000,0.100000,0.048000,-0.598000,0.800000,0.100000,0.000000,0.100000,0.048000,-0.598000,0.800000
0.520000,520.000000,0.200000,0.100000,0.000000,0.048000,-0.598000,0.800000,0.200000,0.100000,0.000000,0.048000,-0.598000,0.800000
0.521000,521.000000,0.200000,0.100000,0.100000,0.048000,-0.598000,0.800000,0.200000,0.100000,0.100000,0.048000,-0.598000,0.800000
0.522000,522.000000,0.100000,0.000000,0.200000,0.046000,-0.596000,0.800000,0.100000,0.000000,0.200000,0.046000,-0.596000,0.800000
0.523000,523.000000,0.000000,0.000000,0.200000,0.046000,-0.594000,0.800000,0.000000,0.000000,0.200000,0.046000,-0.594000,0.800000
0.524000,524.000000,0.000000,0.100000,0.100000,0.044000,-0.594000,0.800000,0.000000,0.100000,0.100000,0.044000,-0.594000,0.800000
0.525000,525.000000,0.000000,0.200000,-0.100000,0.046000,-0.594000,0.800000,0.000000,0.200000,-0.100000,0.046000,-0.594000,0.800000
0.526000,526.000000,0.000000,0.100000,-0.100000,0.046000,-0.596000,0.800000,0.000000,0.100000,-0.100000,0.046000,-0.596000,0.800000
0.527000,527.000000,0.000000,0.100000,0.000000,0.046000,-0.598000,0.800000,0.000000,0.100000,0.000000,0.046000,-0.598000,0.800000
0.528000,528.000000,0.000000,0.000000,0.000000,0.046000,-0.598000,0.802000,0.000000,0.000000,0.000000,0.046000,-0.598000,0.802000
0.529000,529.000000,0.000000,0.000000,0.000000,0.046000,-0.598000,0.804000,0.000000,0.000000,0.000000,0.046000,-0.598000,0.804000
0.530000,530.000000,0.000000,0.000000,0.000000,0.046000,-0.598000,0.804000,0.000000,0.000000,0.000000,0.046000,-0.598000,0.804000
0.531000,531.000000,0.000000,-0.100000,-0.100000,0.046000,-0.598000,0.804000,0.000000,-0.100000,-0.100000,0.046000,-0.598000,0.804000
0.532000,532.000000,0.000000,-0.100000,-0.100000,0.046000,-0.598000,0.804000,0.000000,-0.100000,-0.100000,0.046000,-0.598000,0.804000
0.533000,533.000000,0.000000,0.000000,0.000000,0.046000,-0.600000,0.802000,0.000000,0.000000,0.000000,0.046000,-0.600000,0.802000
0.534000,534.000000,0.000000,0.100000,0.200000,0.046000,-0.598000,0.802000,0.000000,0.100000,0.200000,0.046000,-0.598000,0.802000
0.535000,535.000000,0.000000,0.000000,0.200000,0.046000,-0.596000,0.800000,0.000000,0.000000,0.200000,0.046000,-0.596000,0.800000
0.536000,536.000000,0.000000,-0.100000,0.100000,0.046000,-0.594000,0.800000,0.000000,-0.100000,0.100000,0.046000,-0.594000,0.800000
0.537000,537.000000,0.000000,-0.100000,0.000000,0.046000,-0.594000,0.800000,0.000000,-0.100000,0.000000,0.046000,-0.594000,0.800000
0.538000,538.000000,0.000000,-0.100000,-0.100000,0.046000,-0.596000,0.800000,0.000000,-0.100000,-0.100000,0.046000,-0.596000,0.800000
0.539000,539.000000,0.000000,0.000000,-0.100000,0.046000,-0.598000,0.800000,0.000000,0.000000,-0.100000,0.046000,-0.598000,0.800000
0.540000,540.000000,-0.100000,0.000000,-0.100000,0.044000,-0.598000,0.800000,-0.100000,0.000000,-0.100000,0.044000,-0.598000,0.800000
0.541000,541.000000,-0.100000,0.100000,0.000000,0.044000,-0.598000,0.800000,-0.100000,0.100000,0.000000,0.044000,-0.598000,0.800000
0.542000,542.000000,-0.100000,0.100000,-0.100000,0.046000,-0.596000,0.800000,-0.100000,0.100000,-0.100000,0.046000,-0.596000,0.800000
0.543000,543.000000,0.000000,0.100000,-0.100000,0.046000,-0.594000,0.800000,0.000000,0.100000,-0.100000,0.046000,-0.594000,0.800000
0.544000,544.000000,0.000000,0.000000,-0.100000,0.046000,-0.596000,0.802000,0.000000,0.000000,-0.100000,0.046000,-0.596000,0.802000
0.545000,545.000000,0.000000,-0.100000,0.100000,0.046000,-0.596000,0.802000,0.000000,-0.100000,0.100000,0.046000,-0.596000,0.802000
0.546000,546.000000,0.000000,-0.100000,0.200000,0.046000,-0.596000,0.802000,0.000000,-0.100000,0.200000,0.046000,-0.596000,0.802000
0.547000,547.000000,-0.100000,0.100000,0.100000,0.046000,-0.596000,0.802000,-0.100000,0.100000,0.100000,0.046000,-0.596000,0.802000
0.548000,548.000000,-0.200000,0.100000,0.100000,0.046000,-0.596000,0.802000,-0.200000,0.100000,0.100000,0.046000,-0.596000,0.802000
0.549000,549.000000,-0.100000,0.100000,0.100000,0.046000,-0.596000,0.802000,-0.100000,0.100000,0.100000,0.046000,-0.596000,0.802000
0.550000,550.000000,0.100000,0.000000,0.000000,0.046000,-0.596000,0.800000,0.100000,0.000000,0.000000,0.046000,-0.596000,0.800000
0.551000,551.000000,0.100000,-0.100000,-0.100000,0.046000,-0.596000,0.800000,0.100000,-0.100000,-0.100000,0.046000,-0.596000,0.800000
0.552000,552.000000,0.100000,-0.100000,-0.100000,0.046000,-0.596000,0.800000,0.100000,-0.100000,-0.100000,0.046000,-0.596000,0.800000
0.553000,553.000000,0.000000,0.000000,0.000000,0.046000,-0.596000,0.800000,0.000000,0.000000,0.000000,0.046000,-0.596000,0.800000
0.554000,554.000000,-0.100000,0.000000,0.000000,0.046000,-0.596000,0.800000,-0.100000,0.000000,0.000000,0.046000,-0.596000,0.800000
0.555000,555.000000,0.000000,0.000000,0.000000,0.044000,-0.596000,0.800000,0.000000,0.000000,0.000000,0.044000,-0.596000,0.800000
0.556000,556.000000,0.000000,0.000000,0.000000,0.044000,-0.594000,0.800000,0.000000,0.000000,0.000000,0.044000,-0.594000,0.800000
0.557000,557.000000,-0.100000,0.000000,0.100000,0.046000,-0.594000,0.802000,-0.100000,0.000000,0.100000,0.046000,-0.594000,0.802000
0.558000,558.000000,0.000000,0.000000,0.100000,0.046000,-0.596000,0.802000,0.000000,0.000000,0.100000,0.046000,-0.596000,0.802000
0.559000,559.000000,0.000000,0.000000,0.100000,0.046000,-0.596000,0.800000,0.000000,0.000000,0.100000,0.046000,-0.596000,0.800000
0.560000,560.000000,-0.100000,0.000000,0.100000,0.044000,-0.596000,0.800000,-0.100000,0.000000,0.100000,0.044000,-0.596000,0.800000
0.561000,561.000000,-0.100000,0.000000,0.100000,0.044000,-0.596000,0.802000,-0.100000,0.000000,0.100000,0.044000,-0.596000,0.802000
0.562000,562.000000,0.000000,0.000000,0.000000,0.044000,-0.596000,0.802000,0.000000,0.000000,0.000000,0.044000,-0.596000,0.802000
0.563000,563.000000,0.100000,0.000000,-0.100000,0.046000,-0.596000,0.802000,0.100000,0.000000,-0.100000,0.046000,-0.596000,0.802000
0.564000,564.000000,0.100000,0.100000,-0.100000,0.046000,-0.596000,0.802000,0.100000,0.100000,-0.100000,0.046000,-0.596000,0.802000
0.565000,565.000000,0.000000,0.100000,0.000000,0.046000,-0.596000,0.802000,0.000000,0.100000,0.000000,0.046000,-0.596000,0.802000
0.566000,566.000000,-0.100000,0.100000,-0.100000,0.046000,-0.596000,0.802000,-0.100000,0.100000,-0.100000,0.046000,-0.596000,0.802000
0.567000,567.000000,-0.100000,0.000000,0.000000,0.046000,-0.596000,0.800000,-0.100000,0.000000,0.000000,0.046000,-0.596000,0.800000
0.568000,568.000000,0.000000,0.000000,0.000000,0.046000,-0.596000,0.800000,0.000000,0.000000,0.000000,0.046000,-0.596000,0.800000
0.569000,569.000000,0.000000,0.000000,0.100000,0.046000,-0.596000,0.800000,0.000000,0.000000,0.100000,0.046000,-0.596000,0.800000
0.570000,570.000000,0.000000,-0.100000,0.200000,0.046000,-0.596000,0.800000,0.000000,-0.100000,0.200000,0.046000,-0.596000,0.800000
0.571000,571.000000,0.000000,-0.100000,0.200000,0.046000,-0.596000,0.800000,0.000000,-0.100000,0.200000,0.046000,-0.596000,0.800000
0.572000,572.000000,0.000000,0.000000,0.100000,0.046000,-0.596000,0.800000,0.000000,0.000000,0.100000,0.046000,-0.596000,0.800000
0.573000,573.000000,0.000000,0.000000,0.100000,0.046000,-0.596000,0.800000,0.000000,0.000000,0.100000,0.046000,-0.596000,0.800000
0.574000,574.000000,0.000000,0.100000,0.100000,0.046000,-0.594000,0.800000,0.000000,0.100000,0.100000,0.046000,-0.594000,0.800000
0.575000,575.000000,0.100000,0.100000,0.000000,0.046000,-0.594000,0.798000,0.100000,0.100000,0.000000,0.046000,-0.594000,0.798000
0.576000,576.000000,0.100000,0.000000,-0.100000,0.046000,-0.594000,0.800000,0.100000,0.000000,-0.100000,0.046000,-0.594000,0.800000
0.577000,577.000000,0.000000,0.000000,-0.100000,0.046000,-0.594000,0.800000,0.000000,0.000000,-0.100000,0.046000,-0.594000,0.800000
0.578000,578.000000,0.000000,0.000000,0.000000,0.046000,-0.596000,0.802000,0.000000,0.000000,0.000000,0.046000,-0.596000,0.802000
0.579000,579.000000,0.100000,0.000000,0.100000,0.046000,-0.596000,0.802000,0.100000,0.000000,0.100000,0.046000,-0.596000,0.802000
0.580000,580.000000,0.100000,0.000000,0.000000,0.046000,-0.598000,0.802000,0.100000,0.000000,0.000000,0.046000,-0.598000,0.802000
0.581000,581.000000,0.000000,-0.100000,0.000000,0.046000,-0.598000,0.802000,0.000000,-0.100000,0.000000,0.046000,-0.598000,0.802000
0.582000,582.000000,0.000000,0.000000,0.000000,0.046000,-0.598000,0.802000,0.000000,0.000000,0.000000,0.046000,-0.598000,0.802000
0.583000,583.000000,0.000000,0.000000,0.100000,0.046000,-0.598000,0.802000,0.000000,0.000000,0.100000,0.046000,-0.598000,0.802000
0.584000,584.000000,-0.100000,0.000000,0.100000,0.048000,-0.598000,0.802000,-0.100000,0.000000,0.100000,0.048000,-0.598000,0.802000
0.585000,585.000000,-0.100000,0.000000,0.100000,0.046000,-0.598000,0.802000,-0.100000,0.000000,0.100000,0.046000,-0.598000,0.802000
0.586000,586.000000,0.100000,0.000000,0.000000,0.046000,-0.598000,0.802000,0.100000,0.000000,0.000000,0.046000,-0.598000,0.802000
0.587000,587.000000,0.000000,0.000000,0.100000,0.046000,-0.596000,0.802000,0.000000,0.000000,0.100000,0.046000,-0.596000,0.802000
0.588000,588.000000,-0.100000,0.000000,0.100000,0.046000,-0.596000,0.802000,-0.100000,0.000000,0.100000,0.046000,-0.596000,0.802000
0.589000,589.000000,0.000000,-0.100000,0.200000,0.046000,-0.594000,0.800000,0.000000,-0.100000,0.200000,0.046000,-0.594000,0.800000
0.590000,590.000000,0.000000,-0.100000,0.100000,0.044000,-0.596000,0.802000,0.000000,-0.100000,0.100000,0.044000,-0.596000,0.802000
0.591000,591.000000,0.100000,-0.100000,-0.100000,0.044000,-0.596000,0.802000,0.100000,-0.100000,-0.100000,0.044000,-0.596000,0.802000
0.592000,592.000000,0.200000,0.000000,-0.100000,0.046000,-0.598000,0.802000,0.200000,0.000000,-0.100000,0.046000,-0.598000,0.802000
0.593000,593.000000,0.100000,0.100000,-0.100000,0.046000,-0.596000,0.802000,0.100000,0.100000,-0.100000,0.046000,-0.596000,0.802000
0.594000,594.000000,0.000000,0.100000,0.000000,0.046000,-0.596000,0.802000,0.000000,0.100000,0.000000,0.046000,-0.596000,0.802000
0.595000,595.000000,-0.100000,0.000000,0.100000,0.046000,-0.596000,0.802000,-0.100000,0.000000,0.100000,0.046000,-0.596000,0.802000
0.596000,596.000000,-0.100000,0.000000,0.100000,0.046000,-0.598000,0.804000,-0.100000,0.000000,0.100000,0.046000,-0.598000,0.804000
0.597000,597.000000,-0.100000,0.000000,0.200000,0.046000,-0.600000,0.802000,-0.100000,0.000000,0.200000,0.046000,-0.600000,0.802000
0.598000,598.000000,0.000000,-0.100000,0.200000,0.046000,-0.600000,0.802000,0.000000,-0.100000,0.200000,0.046000,-0.600000,0.802000
0.599000,599.000000,0.000000,-0.100000,0.100000,0.044000,-0.598000,0.802000,0.000000,-0.100000,0.100000,0.044000,-0.598000,0.802000
0.600000,600.000000,0.100000,0.000000,-0.100000,0.044000,-0.598000,0.802000,0.100000,0.000000,-0.100000,0.044000,-0.598000,0.802000
0.601000,601.000000,0.000000,0.100000,-0.100000,0.044000,-0.596000,0.802000,0.000000,0.100000,-0.100000,0.044000,-0.596000,0.802000
0.602000,602.000000,0.000000,0.000000,-0.100000,0.044000,-0.596000,0.802000,0.000000,0.000000,-0.100000,0.044000,-0.596000,0.802000
0.603000,603.000000,-0.100000,0.000000,-0.100000,0.046000,-0.596000,0.804000,-0.100000,0.000000,-0.100000,0.046000,-0.596000,0.804000
0.604000,604.000000,-0.100000,0.100000,-0.100000,0.046000,-0.596000,0.804000,-0.100000,0.100000,-0.100000,0.046000,-0.596000,0.804000
0.605000,605.000000,0.000000,0.100000,0.000000,0.046000,-0.596000,0.804000,0.000000,0.100000,0.000000,0.046000,-0.596000,0.804000
0.606000,606.000000,0.000000,0.100000,0.100000,0.046000,-0.596000,0.802000,0.000000,0.100000,0.100000,0.046000,-0.596000,0.802000
0.607000,607.000000,0.100000,0.000000,0.100000,0.044000,-0.596000,0.802000,0.100000,0.000000,0.100000,0.044000,-0.596000,0.802000
0.608000,608.000000,0.100000,0.000000,0.100000,0.044000,-0.596000,0.802000,0.100000,0.000000,0.100000,0.044000,-0.596000,0.802000
0.609000,609.000000,0.100000,0.000000,0.100000,0.044000,-0.596000,0.802000,0.100000,0.000000,0.100000,0.044000,-0.596000,0.802000
0.610000,610.000000,0.200000,0.000000,0.000000,0.044000,-0.596000,0.802000,0.200000,0.000000,0.000000,0.044000,-0.596000,0.802000
0.611000,611.000000,0.200000,0.100000,-0.100000,0.046000,-0.598000,0.804000,0.200000,0.100000,-0.100000,0.046000,-0.598000,0.804000
0.612000,612.000000,0.100000,0.100000,0.000000,0.046000,-0.598000,0.802000,0.100000,0.100000,0.000000,0.046000,-0.598000,0.802000
0.613000,613.000000,0.000000,-0.100000,0.000000,0.046000,-0.598000,0.802000,0.000000,-0.100000,0.000000,0.046000,-0.598000,0.802000
0.614000,614.000000,0.000000,0.000000,-0.100000,0.046000,-0.598000,0.802000,0.000000,0.000000,-0.100000,0.046000,-0.598000,0.802000
0.615000,615.000000,0.100000,0.000000,0.000000,0.046000,-0.596000,0.802000,0.100000,0.000000,0.000000,0.046000,-0.596000,0.802000
0.616000,616.000000,0.100000,0.100000,0.100000,0.044000,-0.596000,0.802000,0.100000,0.100000,0.100000,0.044000,-0.596000,0.802000
0.617000,617.000000,0.000000,0.100000,0.100000,0.044000,-0.596000,0.802000,0.000000,0.100000,0.100000,0.044000,-0.596000,0.802000
0.618000,618.000000,-0.100000,0.100000,0.000000,0.044000,-0.594000,0.802000,-0.100000,0.100000,0.000000,0.044000,-0.594000,0.802000
0.619000,619.000000,-0.100000,0.000000,-0.200000,0.046000,-0.594000,0.804000,-0.100000,0.000000,-0.200000,0.046000,-0.594000,0.804000
0.620000,620.000000,0.000000,-0.100000,-0.200000,0.046000,-0.594000,0.802000,0.000000,-0.100000,-0.200000,0.046000,-0.594000,0.802000
0.621000,621.000000,0.000000,-0.100000,-0.100000,0.046000,-0.596000,0.802000,0.000000,-0.100000,-0.100000,0.046000,-0.596000,0.802000
0.622000,622.000000,0.000000,0.000000,0.000000,0.046000,-0.594000,0.802000,0.000000,0.000000,0.000000,0.046000,-0.594000,0.802000
0.623000,623.000000,-0.100000,0.000000,0.100000,0.044000,-0.596000,0.802000,-0.100000,0.000000,0.100000,0.044000,-0.596000,0.802000
0.624000,624.000000,-0.100000,0.000000,0.100000,0.044000,-0.598000,0.800000,-0.100000,0.000000,0.100000,0.044000,-0.598000,0.800000
0.625000,625.000000,-0.100000,0.100000,0.000000,0.044000,-0.598000,0.800000,-0.100000,0.100000,0.000000,0.044000,-0.598000,0.800000
0.626000,626.000000,-0.100000,0.100000,0.100000,0.044000,-0.598000,0.800000,-0.100000,0.100000,0.100000,0.044000,-0.598000,0.800000
0.627000,627.000000,0.000000,0.100000,0.000000,0.046000,-0.598000,0.802000,0.000000,0.100000,0.000000,0.046000,-0.598000,0.802000
0.628000,628.000000,0.100000,0.100000,-0.100000,0.046000,-0.596000,0.802000,0.100000,0.100000,-0.100000,0.046000,-0.596000,0.802000
0.629000,629.000000,0.000000,0.100000,-0.100000,0.046000,-0.596000,0.800000,0.000000,0.100000,-0.100000,0.046000,-0.596000,0.800000
0.630000,630.000000,-0.100000,0.000000,0.000000,0.046000,-0.596000,0.800000,-0.100000,0.000000,0.000000,0.046000,-0.596000,0.800000
0.631000,631.000000,0.000000,-0.100000,0.000000,0.046000,-0.596000,0.800000,0.000000,-0.100000,0.000000,0.046000,-0.596000,0.800000
0.632000,632.000000,0.100000,-0.100000,0.000000,0.046000,-0.596000,0.802000,0.100000,-0.100000,0.000000,0.046000,-0.596000,0.802000
0.633000,633.000000,0.000000,-0.100000,0.100000,0.046000,-0.596000,0.802000,0.000000,-0.100000,0.100000,0.046000,-0.596000,0.802000
0.634000,634.000000,-0.100000,-0.100000,0.100000,0.046000,-0.598000,0.802000,-0.100000,-0.100000,0.100000,0.046000,-0.598000,0.802000
0.635000,635.000000,0.000000,0.000000,0.000000,0.046000,-0.598000,0.802000,0.000000,0.000000,0.000000,0.046000,-0.598000,0.802000
0.636000,636.000000,0.100000,0.000000,-0.100000,0.046000,-0.596000,0.802000,0.100000,0.000000,-0.100000,0.046000,-0.596000,0.802000
0.637000,637.000000,0.200000,0.000000,0.000000,0.046000,-0.594000,0.802000,0.200000,0.000000,0.000000,0.046000,-0.594000,0.802000
0.638000,638.000000,0.100000,0.000000,0.000000,0.046000,-0.594000,0.800000,0.100000,0.000000,0.000000,0.046000,-0.594000,0.800000
0.639000,639.000000,0.000000,0.000000,0.000000,0.046000,-0.594000,0.800000,0.000000,0.000000,0.000000,0.046000,-0.594000,0.800000
0.640000,640.000000,-0.100000,0.100000,0.100000,0.046000,-0.594000,0.800000,-0.100000,0.100000,0.100000,0.046000,-0.594000,0.800000
0.641000,641.000000,-0.200000,0.100000,0.100000,0.046000,-0.596000,0.800000,-0.200000,0.100000,0.100000,0.046000,-0.596000,0.800000
0.642000,642.000000,-0.100000,-0.100000,0.100000,0.046000,-0.596000,0.800000,-0.100000,-0.100000,0.100000,0.046000,-0.596000,0.800000
0.643000,643.000000,0.000000,-0.100000,0.000000,0.046000,-0.596000,0.800000,0.000000,-0.100000,0.000000,0.046000,-0.596000,0.800000
0.644000,644.000000,0.000000,0.000000,-0.200000,0.046000,-0.596000,0.800000,0.000000,0.000000,-0.200000,0.046000,-0.596000,0.800000
0.645000,645.000000,0.000000,0.000000,-0.200000,0.044000,-0.596000,0.800000,0.000000,0.000000,-0.200000,0.044000,-0.596000,0.800000
0.646000,646.000000,0.000000,-0.100000,-0.100000,0.044000,-0.596000,0.800000,0.000000,-0.100000,-0.100000,0.044000,-0.596000,0.800000
0.647000,647.000000,0.000000,-0.100000,0.100000,0.046000,-0.596000,0.800000,0.000000,-0.100000,0.100000,0.046000,-0.596000,0.800000
0.648000,648.000000,0.100000,-0.100000,0.200000,0.046000,-0.598000,0.802000,0.100000,-0.100000,0.200000,0.046000,-0.598000,0.802000
0.649000,649.000000,0.100000,0.000000,0.000000,0.046000,-0.598000,0.802000,0.100000,0.000000,0.000000,0.046000,-0.598000,0.802000
0.650000,650.000000,0.000000,0.000000,0.000000,0.046000,-0.598000,0.802000,0.000000,0.000000,0.000000,0.046000,-0.598000,0.802000
0.651000,651.000000,-0.100000,0.000000,0.000000,0.046000,-0.596000,0.802000,-0.100000,0.000000,0.000000,0.046000,-0.596000,0.802000
0.652000,652.000000,0.000000,0.100000,0.100000,0.046000,-0.596000,0.802000,0.000000,0.100000,0.100000,0.046000,-0.596000,0.802000
0.653000,653.000000,0.100000,0.100000,0.000000,0.046000,-0.596000,0.802000,0.100000,0.100000,0.000000,0.046000,-0.596000,0.802000
0.654000,654.000000,0.100000,0.100000,0.000000,0.046000,-0.596000,0.802000,0.100000,0.100000,0.000000,0.046000,-0.596000,0.802000
0.655000,655.000000,0.000000,0.100000,-0.100000,0.046000,-0.598000,0.800000,0.000000,0.100000,-0.100000,0.046000,-0.598000,0.800000
0.656000,656.000000,0.000000,0.000000,-0.100000,0.046000,-0.598000,0.798000,0.000000,0.000000,-0.100000,0.046000,-0.598000,0.798000
0.657000,657.000000,0.100000,-0.100000,-0.100000,0.046000,-0.598000,0.798000,0.100000,-0.100000,-0.100000,0.046000,-0.598000,0.798000
0.658000,658.000000,0.000000,0.000000,0.000000,0.046000,-0.596000,0.798000,0.000000,0.000000,0.000000,0.046000,-0.596000,0.798000
0.659000,659.000000,-0.100000,0.000000,0.100000,0.048000,-0.596000,0.800000,-0.100000,0.000000,0.100000,0.048000,-0.596000,0.800000
0.660000,660.000000,-0.100000,-0.100000,0.100000,0.046000,-0.596000,0.800000,-0.100000,-0.100000,0.100000,0.046000,-0.596000,0.800000
0.661000,661.000000,0.000000,-0.100000,0.100000,0.046000,-0.594000,0.800000,0.000000,-0.100000,0.100000,0.046000,-0.594000,0.800000
0.662000,662.000000,0.100000,-0.100000,0.000000,0.046000,-0.594000,0.800000,0.100000,-0.100000,0.000000,0.046000,-0.594000,0.800000
0.663000,663.000000,0.100000,0.000000,0.000000,0.046000,-0.596000,0.800000,0.100000,0.000000,0.000000,0.046000,-0.596000,0.800000
0.664000,664.000000,0.000000,0.100000,0.000000,0.046000,-0.598000,0.800000,0.000000,0.100000,0.000000,0.046000,-0.598000,0.800000
0.665000,665.000000,-0.100000,0.100000,0.100000,0.044000,-0.600000,0.800000,-0.100000,0.100000,0.100000,0.044000,-0.600000,0.800000
0.666000,666.000000,-0.100000,0.000000,0.100000,0.044000,-0.598000,0.800000,-0.100000,0.000000,0.100000,0.044000,-0.598000,0.800000
0.667000,667.000000,0.100000,0.000000,0.100000,0.046000,-0.596000,0.800000,0.100000,0.000000,0.100000,0.046000,-0.596000,0.800000
0.668000,668.000000,0.100000,0.200000,0.000000,0.046000,-0.596000,0.800000,0.100000,0.200000,0.000000,0.046000,-0.596000,0.800000
0.669000,669.000000,0.000000,0.100000,0.000000,0.046000,-0.596000,0.800000,0.000000,0.100000,0.000000,0.046000,-0.596000,0.800000
0.670000,670.000000,-0.100000,-0.100000,0.000000,0.046000,-0.596000,0.800000,-0.100000,-0.100000,0.000000,0.046000,-0.596000,0.800000
0.671000,671.000000,-0.100000,-0.200000,-0.100000,0.046000,-0.598000,0.800000,-0.100000,-0.200000,-0.100000,0.046000,-0.598000,0.800000
0.672000,672.000000,-0.100000,-0.100000,0.000000,0.046000,-0.598000,0.800000,-0.100000,-0.100000,0.000000,0.046000,-0.598000,0.800000
0.673000,673.000000,-0.100000,0.000000,0.100000,0.046000,-0.598000,0.802000,-0.100000,0.000000,0.100000,0.046000,-0.598000,0.802000
0.674000,674.000000,0.000000,0.100000,0.100000,0.046000,-0.598000,0.804000,0.000000,0.100000,0.100000,0.046000,-0.598000,0.804000
0.675000,675.000000,0.100000,0.000000,-0.100000,0.046000,-0.598000,0.804000,0.100000,0.000000,-0.100000,0.046000,-0.598000,0.804000
0.676000,676.000000,0.100000,0.000000,-0.200000,0.046000,-0.598000,0.802000,0.100000,0.000000,-0.200000,0.046000,-0.598000,0.802000
0.677000,677.000000,0.100000,-0.100000,-0.100000,0.046000,-0.598000,0.800000,0.100000,-0.100000,-0.100000,0.046000,-0.598000,0.800000
0.678000,678.000000,0.000000,-0.100000,0.100000,0.046000,-0.596000,0.798000,0.000000,-0.100000,0.100000,0.046000,-0.596000,0.798000
0.679000,679.000000,0.000000,-0.100000,0.100000,0.046000,-0.594000,0.800000,0.000000,-0.100000,0.100000,0.046000,-0.594000,0.800000
0.680000,680.000000,0.000000,0.000000,0.000000,0.046000,-0.596000,0.802000,0.000000,0.000000,0.000000,0.046000,-0.596000,0.802000
0.681000,681.000000,0.100000,0.100000,-0.100000,0.046000,-0.598000,0.802000,0.100000,0.100000,-0.100000,0.046000,-0.598000,0.802000
0.682000,682.000000,0.100000,0.000000,-0.100000,0.046000,-0.598000,0.804000,0.100000,0.000000,-0.100000,0.046000,-0.598000,0.804000
0.683000,683.000000,0.100000,0.000000,0.000000,0.046000,-0.598000,0.804000,0.100000,0.000000,0.000000,0.046000,-0.598000,0.804000
0.684000,684.000000,0.000000,0.000000,0.100000,0.046000,-0.598000,0.804000,0.000000,0.000000,0.100000,0.046000,-0.598000,0.804000
0.685000,685.000000,-0.100000,0.100000,-0.100000,0.046000,-0.596000,0.802000,-0.100000,0.100000,-0.100000,0.046000,-0.596000,0.802000
0.686000,686.000000,0.000000,0.200000,-0.200000,0.046000,-0.596000,0.802000,0.000000,0.200000,-0.200000,0.046000,-0.596000,0.802000
0.687000,687.000000,-0.100000,0.100000,-0.100000,0.046000,-0.596000,0.802000,-0.100000,0.100000,-0.100000,0.046000,-0.596000,0.802000
0.688000,688.000000,-0.100000,0.000000,0.000000,0.046000,-0.596000,0.802000,-0.100000,0.000000,0.000000,0.046000,-0.596000,0.802000
0.689000,689.000000,0.000000,-0.100000,0.100000,0.046000,-0.596000,0.800000,0.000000,-0.100000,0.100000,0.046000,-0.596000,0.800000
0.690000,690.000000,0.100000,-0.100000,0.100000,0.046000,-0.596000,0.800000,0.100000,-0.100000,0.100000,0.046000,-0.596000,0.800000
0.691000,691.000000,0.100000,-0.100000,0.100000,0.048000,-0.596000,0.800000,0.100000,-0.100000,0.100000,0.048000,-0.596000,0.800000
0.692000,692.000000,0.100000,0.000000,0.100000,0.046000,-0.596000,0.800000,0.100000,0.000000,0.100000,0.046000,-0.596000,0.800000
0.693000,693.000000,0.100000,0.100000,-0.100000,0.046000,-0.596000,0.800000,0.100000,0.100000,-0.100000,0.046000,-0.596000,0.800000
0.694000,694.000000,0.000000,0.100000,-0.200000,0.046000,-0.596000,0.800000,0.000000,0.100000,-0.200000,0.046000,-0.596000,0.800000
0.695000,695.000000,-0.200000,0.000000,0.000000,0.046000,-0.596000,0.800000,-0.200000,0.000000,0.000000,0.046000,-0.596000,0.800000
0.696000,696.000000,-0.100000,0.000000,0.100000,0.046000,-0.596000,0.800000,-0.100000,0.000000,0.100000,0.046000,-0.596000,0.800000
0.697000,697.000000,0.000000,0.100000,0.000000,0.046000,-0.598000,0.800000,0.000000,0.100000,0.000000,0.046000,-0.598000,0.800000
0.698000,698.000000,0.100000,0.000000,-0.100000,0.046000,-0.598000,0.800000,0.100000,0.000000,-0.100000,0.046000,-0.598000,0.800000
0.699000,699.000000,0.000000,0.000000,0.000000,0.046000,-0.598000,0.800000,0.000000,0.000000,0.000000,0.046000,-0.598000,0.800000
0.700000,700.000000,0.000000,0.000000,0.100000,0.044000,-0.598000,0.800000,0.000000,0.000000,0.100000,0.044000,-0.598000,0.800000
0.701000,701.000000,0.000000,0.000000,0.100000,0.044000,-0.596000,0.800000,0.000000,0.000000,0.100000,0.044000,-0.596000,0.800000
0.702000,702.000000,0.100000,0.000000,0.000000,0.046000,-0.596000,0.800000,0.100000,0.000000,0.000000,0.046000,-0.596000,0.800000
0.703000,703.000000,0.100000,0.000000,0.000000,0.046000,-0.596000,0.800000,0.100000,0.000000,0.000000,0.046000,-0.596000,0.800000
0.704000,704.000000,0.100000,0.000000,0.000000,0.046000,-0.598000,0.800000,0.100000,0.000000,0.000000,0.046000,-0.598000,0.800000
0.705000,705.000000,0.100000,0.000000,0.000000,0.046000,-0.598000,0.800000,0.100000,0.000000,0.000000,0.046000,-0.598000,0.800000
0.706000,706.000000,0.000000,0.000000,-0.100000,0.046000,-0.596000,0.800000,0.000000,0.000000,-0.100000,0.046000,-0.596000,0.800000
0.707000,707.000000,0.000000,0.000000,0.000000,0.046000,-0.596000,0.800000,0.000000,0.000000,0.000000,0.046000,-0.596000,0.800000
0.708000,708.000000,0.000000,0.000000,0.000000,0.046000,-0.596000,0.800000,0.000000,0.000000,0.000000,0.046000,-0.596000,0.800000
0.709000,709.000000,0.100000,0.000000,0.000000,0.046000,-0.596000,0.800000,0.100000,0.000000,0.000000,0.046000,-0.596000,0.800000
0.710000,710.000000,0.000000,0.000000,-0.100000,0.046000,-0.598000,0.800000,0.000000,0.000000,-0.100000,0.046000,-0.598000,0.800000
0.711000,711.000000,0.000000,0.000000,-0.100000,0.046000,-0.598000,0.800000,0.000000,0.000000,-0.100000,0.046000,-0.598000,0.800000
0.712000,712.000000,0.000000,0.000000,0.100000,0.046000,-0.596000,0.800000,0.000000,0.000000,0.100000,0.046000,-0.596000,0.800000
0.713000,713.000000,0.100000,0.000000,0.100000,0.046000,-0.596000,0.800000,0.100000,0.000000,0.100000,0.046000,-0.596000,0.800000
0.714000,714.000000,0.100000,0.100000,0.100000,0.046000,-0.596000,0.800000,0.100000,0.100000,0.100000,0.046000,-0.596000,0.800000
0.715000,715.000000,0.100000,0.100000,0.000000,0.046000,-0.596000,0.800000,0.100000,0.100000,0.000000,0.046000,-0.596000,0.800000
0.716000,716.000000,0.000000,0.000000,0.000000,0.046000,-0.594000,0.802000,0.000000,0.000000,0.000000,0.046000,-0.594000,0.802000
0.717000,717.000000,0.000000,0.000000,0.000000,0.046000,-0.596000,0.802000,0.000000,0.000000,0.000000,0.046000,-0.596000,0.802000
0.718000,718.000000,0.000000,0.100000,0.100000,0.046000,-0.596000,0.800000,0.000000,0.100000,0.100000,0.046000,-0.596000,0.800000
0.719000,719.000000,0.100000,0.000000,0.200000,0.046000,-0.596000,0.800000,0.100000,0.000000,0.200000,0.046000,-0.596000,0.800000
0.720000,720.000000,0.100000,0.000000,0.200000,0.046000,-0.596000,0.800000,0.100000,0.000000,0.200000,0.046000,-0.596000,0.800000
0.721000,721.000000,0.000000,0.100000,0.000000,0.046000,-0.596000,0.800000,0.000000,0.100000,0.000000,0.046000,-0.596000,0.800000
0.722000,722.000000,-0.100000,0.200000,0.000000,0.046000,-0.596000,0.802000,-0.100000,0.200000,0.000000,0.046000,-0.596000,0.802000
0.723000,723.000000,-0.200000,0.100000,0.000000,0.046000,-0.596000,0.802000,-0.200000,0.100000,0.000000,0.046000,-0.596000,0.802000
0.724000,724.000000,-0.100000,0.000000,0.100000,0.046000,-0.596000,0.804000,-0.100000,0.000000,0.100000,0.046000,-0.596000,0.804000
0.725000,725.000000,0.100000,-0.100000,0.000000,0.046000,-0.596000,0.804000,0.100000,-0.100000,0.000000,0.046000,-0.596000,0.804000
0.726000,726.000000,0.100000,-0.100000,-0.100000,0.046000,-0.596000,0.804000,0.100000,-0.100000,-0.100000,0.046000,-0.596000,0.804000
0.727000,727.000000,0.000000,0.000000,-0.100000,0.046000,-0.596000,0.802000,0.000000,0.000000,-0.100000,0.046000,-0.596000,0.802000
0.728000,728.000000,0.000000,0.100000,0.000000,0.046000,-0.596000,0.802000,0.000000,0.100000,0.000000,0.046000,-0.596000,0.802000
0.729000,729.000000,0.000000,0.000000,0.100000,0.046000,-0.596000,0.802000,0.000000,0.000000,0.100000,0.046000,-0.596000,0.802000
0.730000,730.000000,0.000000,0.000000,0.000000,0.046000,-0.594000,0.802000,0.000000,0.000000,0.000000,0.046000,-0.594000,0.802000
0.731000,731.000000,0.000000,0.000000,-0.100000,0.046000,-0.596000,0.800000,0.000000,0.000000,-0.100000,0.046000,-0.596000,0.800000
0.732000,732.000000,0.000000,-0.100000,-0.100000,0.046000,-0.596000,0.800000,0.000000,-0.100000,-0.100000,0.046000,-0.596000,0.800000
0.733000,733.000000,-0.100000,-0.200000,-0.100000,0.046000,-0.598000,0.802000,-0.100000,-0.200000,-0.100000,0.046000,-0.598000,0.802000
0.734000,734.000000,0.100000,0.000000,0.000000,0.046000,-0.596000,0.800000,0.100000,0.000000,0.000000,0.046000,-0.596000,0.800000
0.735000,735.000000,0.200000,0.100000,0.000000,0.044000,-0.596000,0.800000,0.200000,0.100000,0.000000,0.044000,-0.596000,0.800000
0.736000,736.000000,0.200000,0.100000,0.200000,0.046000,-0.594000,0.800000,0.200000,0.100000,0.200000,0.046000,-0.594000,0.800000
0.737000,737.000000,0.100000,0.000000,0.200000,0.046000,-0.594000,0.800000,0.100000,0.000000,0.200000,0.046000,-0.594000,0.800000
0.738000,738.000000,0.000000,-0.100000,0.200000,0.046000,-0.594000,0.800000,0.000000,-0.100000,0.200000,0.046000,-0.594000,0.800000
0.739000,739.000000,0.000000,-0.100000,0.000000,0.046000,-0.594000,0.802000,0.000000,-0.100000,0.000000,0.046000,-0.594000,0.802000
0.740000,740.000000,-0.100000,0.000000,0.000000,0.046000,-0.594000,0.800000,-0.100000,0.000000,0.000000,0.046000,-0.594000,0.800000
0.741000,741.000000,-0.200000,0.000000,0.000000,0.046000,-0.594000,0.800000,-0.200000,0.000000,0.000000,0.046000,-0.594000,0.800000
0.742000,742.000000,-0.200000,0.100000,-0.100000,0.046000,-0.596000,0.802000,-0.200000,0.100000,-0.100000,0.046000,-0.596000,0.802000
0.743000,743.000000,-0.100000,0.100000,-0.100000,0.046000,-0.596000,0.802000,-0.100000,0.100000,-0.100000,0.046000,-0.596000,0.802000
0.744000,744.000000,0.100000,0.000000,0.000000,0.046000,-0.594000,0.802000,0.100000,0.000000,0.000000,0.046000,-0.594000,0.802000
0.745000,745.000000,0.200000,0.000000,0.000000,0.046000,-0.596000,0.802000,0.200000,0.000000,0.000000,0.046000,-0.596000,0.802000
0.746000,746.000000,0.100000,0.000000,0.100000,0.046000,-0.598000,0.800000,0.100000,0.000000,0.100000,0.046000,-0.598000,0.800000
0.747000,747.000000,0.000000,0.000000,0.100000,0.046000,-0.598000,0.800000,0.000000,0.000000,0.100000,0.046000,-0.598000,0.800000
0.748000,748.000000,-0.100000,0.000000,0.000000,0.046000,-0.598000,0.800000,-0.100000,0.000000,0.000000,0.046000,-0.598000,0.800000
0.749000,749.000000,-0.200000,0.000000,-0.100000,0.046000,-0.598000,0.800000,-0.200000,0.000000,-0.100000,0.046000,-0.598000,0.800000
0.750000,750.000000,-0.100000,0.000000,0.000000,0.046000,-0.596000,0.800000,-0.100000,0.000000,0.000000,0.046000,-0.596000,0.800000
0.751000,751.000000,0.000000,0.000000,0.100000,0.046000,-0.596000,0.802000,0.000000,0.000000,0.100000,0.046000,-0.596000,0.802000
0.752000,752.000000,0.100000,0.100000,0.100000,0.046000,-0.596000,0.802000,0.100000,0.100000,0.100000,0.046000,-0.596000,0.802000
0.753000,753.000000,0.100000,0.100000,0.100000,0.046000,-0.594000,0.802000,0.100000,0.100000,0.100000,0.046000,-0.594000,0.802000
0.754000,754.000000,0.100000,0.100000,0.000000,0.046000,-0.594000,0.802000,0.100000,0.100000,0.000000,0.046000,-0.594000,0.802000
0.755000,755.000000,0.100000,0.100000,-0.100000,0.046000,-0.596000,0.802000,0.100000,0.100000,-0.100000,0.046000,-0.596000,0.802000
0.756000,756.000000,0.100000,0.000000,-0.100000,0.044000,-0.596000,0.802000,0.100000,0.000000,-0.100000,0.044000,-0.596000,0.802000
0.757000,757.000000,0.000000,-0.100000,-0.100000,0.044000,-0.598000,0.802000,0.000000,-0.100000,-0.100000,0.044000,-0.598000,0.802000
0.758000,758.000000,-0.100000,-0.200000,0.000000,0.044000,-0.598000,0.802000,-0.100000,-0.200000,0.000000,0.044000,-0.598000,0.802000
0.759000,759.000000,-0.100000,-0.200000,0.100000,0.044000,-0.598000,0.802000,-0.100000,-0.200000,0.100000,0.044000,-0.598000,0.802000
0.760000,760.000000,-0.100000,-0.100000,0.100000,0.044000,-0.598000,0.802000,-0.100000,-0.100000,0.100000,0.044000,-0.598000,0.802000
0.761000,761.000000,-0.100000,0.100000,0.100000,0.044000,-0.596000,0.800000,-0.100000,0.100000,0.100000,0.044000,-0.596000,0.800000
0.762000,762.000000,-0.100000,0.100000,0.100000,0.044000,-0.596000,0.798000,-0.100000,0.100000,0.100000,0.044000,-0.596000,0.798000
0.763000,763.000000,0.000000,-0.100000,0.000000,0.044000,-0.596000,0.800000,0.000000,-0.100000,0.000000,0.044000,-0.596000,0.800000
0.764000,764.000000,0.000000,-0.100000,0.000000,0.046000,-0.596000,0.800000,0.000000,-0.100000,0.000000,0.046000,-0.596000,0.800000
0.765000,765.000000,0.100000,0.000000,0.000000,0.046000,-0.596000,0.800000,0.100000,0.000000,0.000000,0.046000,-0.596000,0.800000
0.766000,766.000000,0.000000,-0.100000,0.100000,0.046000,-0.598000,0.800000,0.000000,-0.100000,0.100000,0.046000,-0.598000,0.800000
0.767000,767.000000,-0.100000,-0.100000,0.100000,0.046000,-0.598000,0.802000,-0.100000,-0.100000,0.100000,0.046000,-0.598000,0.802000
0.768000,768.000000,-0.100000,-0.100000,0.000000,0.046000,-0.596000,0.804000,-0.100000,-0.100000,0.000000,0.046000,-0.596000,0.804000
0.769000,769.000000,0.000000,0.000000,-0.100000,0.046000,-0.596000,0.804000,0.000000,0.000000,-0.100000,0.046000,-0.596000,0.804000
0.770000,770.000000,0.100000,0.000000,-0.100000,0.046000,-0.596000,0.802000,0.100000,0.000000,-0.100000,0.046000,-0.596000,0.802000
0.771000,771.000000,0.100000,0.000000,0.000000,0.046000,-0.596000,0.802000,0.100000,0.000000,0.000000,0.046000,-0.596000,0.802000
0.772000,772.000000,0.100000,0.000000,0.000000,0.044000,-0.596000,0.800000,0.100000,0.000000,0.000000,0.044000,-0.596000,0.800000
0.773000,773.000000,0.000000,0.000000,-0.100000,0.046000,-0.596000,0.800000,0.000000,0.000000,-0.100000,0.046000,-0.596000,0.800000
0.774000,774.000000,-0.200000,-0.100000,-0.200000,0.046000,-0.598000,0.798000,-0.200000,-0.100000,-0.200000,0.046000,-0.598000,0.798000
0.775000,775.000000,-0.200000,-0.200000,-0.200000,0.046000,-0.598000,0.798000,-0.200000,-0.200000,-0.200000,0.046000,-0.598000,0.798000
0.776000,776.000000,-0.100000,-0.200000,0.000000,0.044000,-0.598000,0.800000,-0.100000,-0.200000,0.000000,0.044000,-0.598000,0.800000
0.777000,777.000000,0.000000,-0.100000,0.000000,0.044000,-0.596000,0.800000,0.000000,-0.100000,0.000000,0.044000,-0.596000,0.800000
0.778000,778.000000,0.100000,0.000000,0.000000,0.046000,-0.598000,0.802000,0.100000,0.000000,0.000000,0.046000,-0.598000,0.802000
0.779000,779.000000,0.100000,0.000000,0.000000,0.046000,-0.598000,0.800000,0.100000,0.000000,0.000000,0.046000,-0.598000,0.800000
0.780000,780.000000,0.100000,0.000000,0.000000,0.046000,-0.598000,0.800000,0.100000,0.000000,0.000000,0.046000,-0.598000,0.800000
0.781000,781.000000,0.200000,-0.100000,-0.100000,0.046000,-0.598000,0.800000,0.200000,-0.100000,-0.100000,0.046000,-0.598000,0.800000
0.782000,782.000000,0.200000,0.000000,-0.100000,0.046000,-0.598000,0.802000,0.200000,0.000000,-0.100000,0.046000,-0.598000,0.802000
0.783000,783.000000,0.000000,0.100000,0.000000,0.046000,-0.596000,0.802000,0.000000,0.100000,0.000000,0.046000,-0.596000,0.802000
0.784000,784.000000,0.000000,0.000000,0.000000,0.046000,-0.596000,0.802000,0.000000,0.000000,0.000000,0.046000,-0.596000,0.802000
0.785000,785.000000,0.000000,-0.100000,0.100000,0.046000,-0.596000,0.802000,0.000000,-0.100000,0.100000,0.046000,-0.596000,0.802000
0.786000,786.000000,0.000000,-0.100000,0.100000,0.046000,-0.596000,0.802000,0.000000,-0.100000,0.100000,0.046000,-0.596000,0.802000
0.787000,787.000000,0.000000,-0.100000,0.000000,0.046000,-0.596000,0.802000,0.000000,-0.100000,0.000000,0.046000,-0.596000,0.802000
0.788000,788.000000,-0.100000,0.000000,0.000000,0.046000,-0.596000,0.800000,-0.100000,0.000000,0.000000,0.046000,-0.596000,0.800000
0.789000,789.000000,-0.200000,0.000000,-0.100000,0.046000,-0.596000,0.800000,-0.200000,0.000000,-0.100000,0.046000,-0.596000,0.800000
0.790000,790.000000,-0.100000,0.000000,-0.100000,0.046000,-0.596000,0.800000,-0.100000,0.000000,-0.100000,0.046000,-0.596000,0.800000
0.791000,791.000000,0.000000,-0.100000,0.000000,0.046000,-0.596000,0.800000,0.000000,-0.100000,0.000000,0.046000,-0.596000,0.800000
0.792000,792.000000,0.000000,0.000000,0.000000,0.046000,-0.594000,0.800000,0.000000,0.000000,0.000000,0.046000,-0.594000,0.800000
0.793000,793.000000,0.000000,0.000000,-0.100000,0.046000,-0.596000,0.800000,0.000000,0.000000,-0.100000,0.046000,-0.596000,0.800000
0.794000,794.000000,0.000000,0.000000,-0.300000,0.046000,-0.596000,0.800000,0.000000,0.000000,-0.300000,0.046000,-0.596000,0.800000
0.795000,795.000000,0.000000,0.000000,-0.100000,0.046000,-0.596000,0.800000,0.000000,0.000000,-0.100000,0.046000,-0.596000,0.800000
0.796000,796.000000,0.000000,0.100000,0.100000,0.046000,-0.596000,0.800000,0.000000,0.100000,0.100000,0.046000,-0.596000,0.800000
0.797000,797.000000,0.100000,0.000000,0.100000,0.046000,-0.596000,0.800000,0.100000,0.000000,0.100000,0.046000,-0.596000,0.800000
0.798000,798.000000,0.100000,-0.100000,0.100000,0.046000,-0.594000,0.800000,0.100000,-0.100000,0.100000,0.046000,-0.594000,0.800000
0.799000,799.000000,0.100000,-0.100000,0.000000,0.046000,-0.594000,0.802000,0.100000,-0.100000,0.000000,0.046000,-0.594000,0.802000
0.800000,800.000000,0.100000,0.000000,0.000000,0.046000,-0.594000,0.802000,0.100000,0.000000,0.000000,0.046000,-0.594000,0.802000
0.801000,801.000000,0.000000,0.000000,0.000000,0.046000,-0.594000,0.802000,0.000000,0.000000,0.000000,0.046000,-0.594000,0.802000
0.802000,802.000000,0.000000,0.000000,0.000000,0.046000,-0.596000,0.800000,0.000000,0.000000,0.000000,0.046000,-0.596000,0.800000
0.803000,803.000000,0.000000,0.000000,-0.100000,0.046000,-0.596000,0.800000,0.000000,0.000000,-0.100000,0.046000,-0.596000,0.800000
0.804000,804.000000,0.000000,0.000000,0.000000,0.046000,-0.596000,0.800000,0.000000,0.000000,0.000000,0.046000,-0.596000,0.800000
0.805000,805.000000,0.000000,0.000000,0.000000,0.044000,-0.598000,0.800000,0.000000,0.000000,0.000000,0.044000,-0.598000,0.800000
0.806000,806.000000,0.000000,0.000000,0.000000,0.044000,-0.598000,0.802000,0.000000,0.000000,0.000000,0.044000,-0.598000,0.802000
0.807000,807.000000,0.100000,0.100000,0.000000,0.046000,-0.596000,0.802000,0.100000,0.100000,0.000000,0.046000,-0.596000,0.802000
0.808000,808.000000,0.100000,0.100000,0.100000,0.046000,-0.596000,0.802000,0.100000,0.100000,0.100000,0.046000,-0.596000,0.802000
0.809000,809.000000,0.000000,0.000000,0.000000,0.048000,-0.596000,0.802000,0.000000,0.000000,0.000000,0.048000,-0.596000,0.802000
0.810000,810.000000,-0.100000,0.000000,0.000000,0.048000,-0.596000,0.802000,-0.100000,0.000000,0.000000,0.048000,-0.596000,0.802000
0.811000,811.000000,-0.100000,-0.100000,0.000000,0.048000,-0.596000,0.802000,-0.100000,-0.100000,0.000000,0.048000,-0.596000,0.802000
0.812000,812.000000,-0.100000,-0.100000,0.000000,0.048000,-0.594000,0.800000,-0.100000,-0.100000,0.000000,0.048000,-0.594000,0.800000
0.813000,813.000000,-0.100000,-0.100000,0.100000,0.046000,-0.594000,0.800000,-0.100000,-0.100000,0.100000,0.046000,-0.594000,0.800000
0.814000,814.000000,-0.100000,0.000000,0.100000,0.046000,-0.596000,0.800000,-0.100000,0.000000,0.100000,0.046000,-0.596000,0.800000
0.815000,815.000000,0.100000,0.100000,0.100000,0.046000,-0.596000,0.800000,0.100000,0.100000,0.100000,0.046000,-0.596000,0.800000
0.816000,816.000000,0.200000,0.100000,0.000000,0.046000,-0.596000,0.800000,0.200000,0.100000,0.000000,0.046000,-0.596000,0.800000
0.817000,817.000000,0.100000,0.000000,0.000000,0.046000,-0.598000,0.800000,0.100000,0.000000,0.000000,0.046000,-0.598000,0.800000
0.818000,818.000000,0.000000,0.000000,-0.100000,0.046000,-0.598000,0.800000,0.000000,0.000000,-0.100000,0.046000,-0.598000,0.800000
0.819000,819.000000,0.100000,0.000000,-0.100000,0.048000,-0.598000,0.802000,0.100000,0.000000,-0.100000,0.048000,-0.598000,0.802000
0.820000,820.000000,0.100000,0.000000,0.000000,0.046000,-0.598000,0.802000,0.100000,0.000000,0.000000,0.046000,-0.598000,0.802000
0.821000,821.000000,0.100000,0.000000,0.000000,0.046000,-0.596000,0.802000,0.100000,0.000000,0.000000,0.046000,-0.596000,0.802000
0.822000,822.000000,-0.100000,0.100000,0.000000,0.046000,-0.596000,0.802000,-0.100000,0.100000,0.000000,0.046000,-0.596000,0.802000
0.823000,823.000000,-0.100000,0.100000,0.000000,0.046000,-0.596000,0.802000,-0.100000,0.100000,0.000000,0.046000,-0.596000,0.802000
0.824000,824.000000,0.000000,0.000000,0.100000,0.046000,-0.596000,0.802000,0.000000,0.000000,0.100000,0.046000,-0.596000,0.802000
0.825000,825.000000,0.000000,-0.100000,0.000000,0.046000,-0.596000,0.802000,0.000000,-0.100000,0.000000,0.046000,-0.596000,0.802000
0.826000,826.000000,-0.100000,-0.100000,0.000000,0.046000,-0.594000,0.802000,-0.100000,-0.100000,0.000000,0.046000,-0.594000,0.802000
0.827000,827.000000,-0.100000,0.000000,0.100000,0.046000,-0.594000,0.802000,-0.100000,0.000000,0.100000,0.046000,-0.594000,0.802000
0.828000,828.000000,0.100000,0.100000,0.100000,0.046000,-0.594000,0.802000,0.100000,0.100000,0.100000,0.046000,-0.594000,0.802000
0.829000,829.000000,0.100000,0.000000,0.100000,0.046000,-0.594000,0.802000,0.100000,0.000000,0.100000,0.046000,-0.594000,0.802000
0.830000,830.000000,0.100000,0.000000,0.100000,0.046000,-0.596000,0.802000,0.100000,0.000000,0.100000,0.046000,-0.596000,0.802000
0.831000,831.000000,0.000000,-0.100000,0.100000,0.046000,-0.596000,0.802000,0.000000,-0.100000,0.100000,0.046000,-0.596000,0.802000
0.832000,832.000000,-0.100000,0.000000,0.000000,0.044000,-0.596000,0.802000,-0.100000,0.000000,0.000000,0.044000,-0.596000,0.802000
0.833000,833.000000,0.000000,0.000000,0.000000,0.044000,-0.596000,0.802000,0.000000,0.000000,0.000000,0.044000,-0.596000,0.802000
0.834000,834.000000,0.100000,0.000000,0.000000,0.044000,-0.596000,0.802000,0.100000,0.000000,0.000000,0.044000,-0.596000,0.802000
0.835000,835.000000,0.100000,0.100000,0.000000,0.044000,-0.596000,0.800000,0.100000,0.100000,0.000000,0.044000,-0.596000,0.800000
0.836000,836.000000,0.000000,0.000000,0.000000,0.046000,-0.596000,0.798000,0.000000,0.000000,0.000000,0.046000,-0.596000,0.798000
0.837000,837.000000,0.000000,-0.100000,0.100000,0.046000,-0.596000,0.798000,0.000000,-0.100000,0.100000,0.046000,-0.596000,0.798000
0.838000,838.000000,0.000000,-0.100000,0.100000,0.048000,-0.598000,0.800000,0.000000,-0.100000,0.100000,0.048000,-0.598000,0.800000
0.839000,839.000000,0.000000,0.000000,0.000000,0.048000,-0.596000,0.800000,0.000000,0.000000,0.000000,0.048000,-0.596000,0.800000
0.840000,840.000000,0.100000,0.000000,0.000000,0.046000,-0.596000,0.800000,0.100000,0.000000,0.000000,0.046000,-0.596000,0.800000
0.841000,841.000000,0.100000,0.000000,0.000000,0.046000,-0.596000,0.800000,0.100000,0.000000,0.000000,0.046000,-0.596000,0.800000
0.842000,842.000000,0.100000,0.000000,0.100000,0.046000,-0.596000,0.800000,0.100000,0.000000,0.100000,0.046000,-0.596000,0.800000
0.843000,843.000000,0.000000,0.000000,0.100000,0.046000,-0.596000,0.800000,0.000000,0.000000,0.100000,0.046000,-0.596000,0.800000
0.844000,844.000000,0.000000,0.100000,0.100000,0.046000,-0.596000,0.802000,0.000000,0.100000,0.100000,0.046000,-0.596000,0.802000
0.845000,845.000000,0.000000,0.000000,-0.100000,0.046000,-0.594000,0.802000,0.000000,0.000000,-0.100000,0.046000,-0.594000,0.802000
0.846000,846.000000,0.000000,0.000000,-0.100000,0.044000,-0.594000,0.800000,0.000000,0.000000,-0.100000,0.044000,-0.594000,0.800000
0.847000,847.000000,0.000000,0.000000,-0.100000,0.044000,-0.594000,0.800000,0.000000,0.000000,-0.100000,0.044000,-0.594000,0.800000
0.848000,848.000000,0.000000,-0.100000,0.000000,0.044000,-0.594000,0.802000,0.000000,-0.100000,0.000000,0.044000,-0.594000,0.802000
0.849000,849.000000,0.000000,-0.100000,0.100000,0.044000,-0.594000,0.802000,0.000000,-0.100000,0.100000,0.044000,-0.594000,0.802000
0.850000,850.000000,0.000000,0.000000,0.000000,0.044000,-0.594000,0.802000,0.000000,0.000000,0.000000,0.044000,-0.594000,0.802000
0.851000,851.000000,0.000000,0.000000,-0.100000,0.046000,-0.596000,0.802000,0.000000,0.000000,-0.100000,0.046000,-0.596000,0.802000
0.852000,852.000000,0.000000,0.000000,-0.100000,0.046000,-0.598000,0.802000,0.000000,0.000000,-0.100000,0.046000,-0.598000,0.802000
0.853000,853.000000,0.000000,0.000000,-0.100000,0.046000,-0.598000,0.802000,0.000000,0.000000,-0.100000,0.046000,-0.598000,0.802000
0.854000,854.000000,0.000000,0.000000,0.000000,0.046000,-0.598000,0.802000,0.000000,0.000000,0.000000,0.046000,-0.598000,0.802000
0.855000,855.000000,0.000000,0.000000,0.000000,0.046000,-0.596000,0.802000,0.000000,0.000000,0.000000,0.046000,-0.596000,0.802000
0.856000,856.000000,0.000000,0.000000,0.000000,0.046000,-0.596000,0.802000,0.000000,0.000000,0.000000,0.046000,-0.596000,0.802000
0.857000,857.000000,0.000000,0.100000,0.000000,0.046000,-0.594000,0.802000,0.000000,0.100000,0.000000,0.046000,-0.594000,0.802000
0.858000,858.000000,0.000000,0.100000,0.100000,0.046000,-0.596000,0.800000,0.000000,0.100000,0.100000,0.046000,-0.596000,0.800000
0.859000,859.000000,-0.100000,0.100000,0.100000,0.046000,-0.596000,0.798000,-0.100000,0.100000,0.100000,0.046000,-0.596000,0.798000
0.860000,860.000000,-0.100000,0.000000,0.100000,0.044000,-0.598000,0.798000,-0.100000,0.000000,0.100000,0.044000,-0.598000,0.798000
0.861000,861.000000,0.000000,-0.100000,0.000000,0.044000,-0.596000,0.800000,0.000000,-0.100000,0.000000,0.044000,-0.596000,0.800000
0.862000,862.000000,0.100000,0.000000,0.000000,0.046000,-0.596000,0.800000,0.100000,0.000000,0.000000,0.046000,-0.596000,0.800000
0.863000,863.000000,0.100000,0.100000,0.100000,0.046000,-0.596000,0.800000,0.100000,0.100000,0.100000,0.046000,-0.596000,0.800000
0.864000,864.000000,0.000000,0.000000,0.100000,0.046000,-0.596000,0.798000,0.000000,0.000000,0.100000,0.046000,-0.596000,0.798000
0.865000,865.000000,0.000000,0.000000,0.000000,0.046000,-0.596000,0.800000,0.000000,0.000000,0.000000,0.046000,-0.596000,0.800000
0.866000,866.000000,0.100000,-0.200000,0.000000,0.046000,-0.596000,0.800000,0.100000,-0.200000,0.000000,0.046000,-0.596000,0.800000
0.867000,867.000000,0.200000,-0.200000,0.000000,0.046000,-0.596000,0.800000,0.200000,-0.200000,0.000000,0.046000,-0.596000,0.800000
0.868000,868.000000,0.000000,0.000000,0.000000,0.046000,-0.596000,0.800000,0.000000,0.000000,0.000000,0.046000,-0.596000,0.800000
0.869000,869.000000,-0.200000,0.100000,0.100000,0.046000,-0.596000,0.802000,-0.200000,0.100000,0.100000,0.046000,-0.596000,0.802000
0.870000,870.000000,-0.100000,0.100000,0.100000,0.046000,-0.596000,0.802000,-0.100000,0.100000,0.100000,0.046000,-0.596000,0.802000
0.871000,871.000000,0.100000,0.100000,0.000000,0.044000,-0.598000,0.800000,0.100000,0.100000,0.000000,0.044000,-0.598000,0.800000
0.872000,872.000000,0.100000,0.100000,-0.100000,0.044000,-0.598000,0.800000,0.100000,0.100000,-0.100000,0.044000,-0.598000,0.800000
0.873000,873.000000,0.000000,0.100000,-0.100000,0.046000,-0.596000,0.802000,0.000000,0.100000,-0.100000,0.046000,-0.596000,0.802000
0.874000,874.000000,0.000000,0.100000,-0.100000,0.046000,-0.596000,0.802000,0.000000,0.100000,-0.100000,0.046000,-0.596000,0.802000
0.875000,875.000000,0.000000,0.000000,-0.200000,0.046000,-0.596000,0.802000,0.000000,0.000000,-0.200000,0.046000,-0.596000,0.802000
0.876000,876.000000,-0.100000,0.000000,-0.100000,0.046000,-0.596000,0.802000,-0.100000,0.000000,-0.100000,0.046000,-0.596000,0.802000
0.877000,877.000000,-0.100000,0.000000,0.000000,0.046000,-0.596000,0.800000,-0.100000,0.000000,0.000000,0.046000,-0.596000,0.800000
0.878000,878.000000,-0.100000,0.100000,0.100000,0.044000,-0.596000,0.798000,-0.100000,0.100000,0.100000,0.044000,-0.596000,0.798000
0.879000,879.000000,0.000000,0.000000,0.200000,0.046000,-0.596000,0.798000,0.000000,0.000000,0.200000,0.046000,-0.596000,0.798000
0.880000,880.000000,0.200000,0.000000,0.100000,0.046000,-0.596000,0.798000,0.200000,0.000000,0.100000,0.046000,-0.596000,0.798000
0.881000,881.000000,0.200000,0.000000,0.000000,0.046000,-0.596000,0.798000,0.200000,0.000000,0.000000,0.046000,-0.596000,0.798000
0.882000,882.000000,0.200000,0.000000,0.000000,0.046000,-0.596000,0.798000,0.200000,0.000000,0.000000,0.046000,-0.596000,0.798000
0.883000,883.000000,0.000000,0.000000,0.000000,0.046000,-0.598000,0.798000,0.000000,0.000000,0.000000,0.046000,-0.598000,0.798000
0.884000,884.000000,0.000000,-0.100000,0.000000,0.046000,-0.598000,0.798000,0.000000,-0.100000,0.000000,0.046000,-0.598000,0.798000
0.885000,885.000000,0.100000,-0.100000,0.000000,0.046000,-0.596000,0.800000,0.100000,-0.100000,0.000000,0.046000,-0.596000,0.800000
0.886000,886.000000,0.100000,0.000000,-0.100000,0.046000,-0.596000,0.802000,0.100000,0.000000,-0.100000,0.046000,-0.596000,0.802000
0.887000,887.000000,0.000000,0.000000,-0.100000,0.046000,-0.596000,0.802000,0.000000,0.000000,-0.100000,0.046000,-0.596000,0.802000
0.888000,888.000000,0.000000,0.100000,0.000000,0.046000,-0.596000,0.802000,0.000000,0.100000,0.000000,0.046000,-0.596000,0.802000
0.889000,889.000000,0.000000,0.100000,0.000000,0.046000,-0.596000,0.800000,0.000000,0.100000,0.000000,0.046000,-0.596000,0.800000
0.890000,890.000000,0.000000,0.000000,0.100000,0.046000,-0.596000,0.800000,0.000000,0.000000,0.100000,0.046000,-0.596000,0.800000
0.891000,891.000000,0.000000,0.000000,0.000000,0.046000,-0.596000,0.802000,0.000000,0.000000,0.000000,0.046000,-0.596000,0.802000
0.892000,892.000000,-0.100000,0.000000,0.000000,0.048000,-0.596000,0.802000,-0.100000,0.000000,0.000000,0.048000,-0.596000,0.802000
0.893000,893.000000,-0.200000,0.100000,-0.100000,0.046000,-0.596000,0.802000,-0.200000,0.100000,-0.100000,0.046000,-0.596000,0.802000
0.894000,894.000000,-0.200000,0.100000,-0.100000,0.046000,-0.596000,0.802000,-0.200000,0.100000,-0.100000,0.046000,-0.596000,0.802000
0.895000,895.000000,-0.100000,0.100000,-0.100000,0.044000,-0.594000,0.800000,-0.100000,0.100000,-0.100000,0.044000,-0.594000,0.800000
0.896000,896.000000,0.000000,0.000000,-0.100000,0.044000,-0.594000,0.800000,0.000000,0.000000,-0.100000,0.044000,-0.594000,0.800000
0.897000,897.000000,0.000000,0.000000,-0.100000,0.044000,-0.596000,0.802000,0.000000,0.000000,-0.100000,0.044000,-0.596000,0.802000
0.898000,898.000000,0.000000,-0.100000,0.000000,0.044000,-0.596000,0.800000,0.000000,-0.100000,0.000000,0.044000,-0.596000,0.800000
0.899000,899.000000,0.000000,-0.100000,0.100000,0.044000,-0.596000,0.800000,0.000000,-0.100000,0.100000,0.044000,-0.596000,0.800000
0.900000,900.000000,0.000000,-0.100000,0.100000,0.044000,-0.596000,0.800000,0.000000,-0.100000,0.100000,0.044000,-0.596000,0.800000
0.901000,901.000000,0.100000,0.000000,-0.100000,0.046000,-0.598000,0.800000,0.100000,0.000000,-0.100000,0.046000,-0.598000,0.800000
0.902000,902.000000,0.100000,0.100000,0.000000,0.046000,-0.598000,0.800000,0.100000,0.100000,0.000000,0.046000,-0.598000,0.800000
0.903000,903.000000,0.000000,0.100000,0.100000,0.046000,-0.598000,0.800000,0.000000,0.100000,0.100000,0.046000,-0.598000,0.800000
0.904000,904.000000,0.000000,0.000000,0.200000,0.048000,-0.596000,0.800000,0.000000,0.000000,0.200000,0.048000,-0.596000,0.800000
0.905000,905.000000,0.100000,0.000000,0.100000,0.048000,-0.596000,0.800000,0.100000,0.000000,0.100000,0.048000,-0.596000,0.800000
0.906000,906.000000,0.100000,0.000000,0.000000,0.048000,-0.596000,0.800000,0.100000,0.000000,0.000000,0.048000,-0.596000,0.800000
0.907000,907.000000,0.100000,0.100000,0.000000,0.048000,-0.596000,0.798000,0.100000,0.100000,0.000000,0.048000,-0.596000,0.798000
0.908000,908.000000,0.100000,0.100000,0.000000,0.046000,-0.596000,0.800000,0.100000,0.100000,0.000000,0.046000,-0.596000,0.800000
0.909000,909.000000,0.100000,0.000000,0.000000,0.046000,-0.596000,0.800000,0.100000,0.000000,0.000000,0.046000,-0.596000,0.800000
0.910000,910.000000,0.200000,0.000000,0.000000,0.046000,-0.598000,0.802000,0.200000,0.000000,0.000000,0.046000,-0.598000,0.802000
0.911000,911.000000,0.100000,0.000000,-0.100000,0.046000,-0.598000,0.802000,0.100000,0.000000,-0.100000,0.046000,-0.598000,0.802000
