FILE_INFO
ListSeparator=,
DecimalSeparator=.

SESSION_INFO
TimeZone,UTC
TimeZoneOffset,0
DateTimeFormat,MM/DD/YY h:mm:ss.nnnnnnnnn
StartTime,05/14/26 20:17:45.785342976
TimeFormat,Standard

DEVICE_INFO
Address,*

CHANNEL_INFO
Channel,Type,SampleRate,Equation,Coefficients,Unit,UnitSymbol,WhereApplied,WhenApplied
inertial-6288.213393:scaledAccelX,Timeseries,1000Hz,,,,,,
inertial-6288.213393:scaledAccelY,Timeseries,1000Hz,,,,,,
inertial-6288.213393:scaledAccelZ,Timeseries,1000Hz,,,,,,
inertial-6288.213393:scaledGyroX,Timeseries,1000Hz,,,,,,
inertial-6288.213393:scaledGyroY,Timeseries,1000Hz,,,,,,
inertial-6288.213393:scaledGyroZ,Timeseries,1000Hz,,,,,,
inertial-6288.213393:timeInfo_referenceTime_ahrsImu,Timeseries,1000Hz,,,,,,

DATA_START
Time,inertial-6288.213393:scaledAccelX,inertial-6288.213393:scaledAccelY,inertial-6288.213393:scaledAccelZ,inertial-6288.213393:scaledGyroX,inertial-6288.213393:scaledGyroY,inertial-6288.213393:scaledGyroZ,inertial-6288.213393:timeInfo_referenceTime_ahrsImu
05/14/26 20:17:45.785342976,-0.04013876989483833,0.9517792463302612,0.2980629801750183,-0.002440765732899308,-0.001245355233550072,-0.0005919752293266356,1610629000000
05/14/26 20:17:45.786342912,-0.03989928588271141,0.9521042108535767,0.2980678081512451,-0.003475428558886051,-0.002069257199764252,-0.001299860305152833,1610630000000
05/14/26 20:17:45.787342848,-0.03974730893969536,0.9520871043205261,0.2982535064220428,-0.003242718987166882,-0.00249742460437119,-0.001127890544012189,1610631000000
05/14/26 20:17:45.788342784,-0.03998750075697899,0.951995849609375,0.298855721950531,0.0003025978803634644,-0.0002744286321103573,4.256516695022583e-05,1610632000000
05/14/26 20:17:45.789342720,-0.03958040848374367,0.9523432850837708,0.2990871071815491,0.001722653629258275,-0.0003030295192729682,0.0003251173184253275,1610633000000
05/14/26 20:17:45.790342656,-0.03901635482907295,0.952514111995697,0.2988619208335876,0.001709944219328463,-0.0006659543723799288,-0.000409899337682873,1610634000000
05/14/26 20:17:45.791342592,-0.03906681761145592,0.9520950317382812,0.2989940643310547,8.250901009887457e-05,0.0004107454442419112,-0.0008081946289166808,1610635000000
05/14/26 20:17:45.792342528,-0.03963127732276917,0.952181339263916,0.2992175221443176,-0.001582413329742849,-0.0005025004502385855,-0.0003220272483304143,1610636000000
05/14/26 20:17:45.793342464,-0.03948526829481125,0.9527547359466553,0.2990820109844208,-0.003731726668775082,-0.000379255332518369,-8.084881119430065e-05,1610637000000
05/14/26 20:17:45.794342400,-0.03907779604196548,0.9530830979347229,0.2994160354137421,-0.004233526065945625,-0.0002240917820017785,-0.000132180139189586,1610638000000
05/14/26 20:17:45.795342336,-0.03889062255620956,0.9535325169563293,0.2992152571678162,-0.001690304139629006,0.0006295674247667193,6.565767398569733e-05,1610639000000
05/14/26 20:17:45.796342528,-0.03921955078840256,0.9534586071968079,0.2994500398635864,0.002626660047098994,0.0008347253897227347,0.0005532289505936205,1610640000000
05/14/26 20:17:45.797342464,-0.03948173671960831,0.9533543586730957,0.3001562356948853,0.00181398238055408,0.00101391552016139,0.0008034160127863288,1610641000000
05/14/26 20:17:45.798342400,-0.0395396314561367,0.9534206986427307,0.3004199266433716,-0.001279821153730154,7.576774805784225e-06,0.0005352791049517691,1610642000000
05/14/26 20:17:45.799342336,-0.03909502923488617,0.9530645608901978,0.300018846988678,-0.001209347625263035,-0.0002368732530158013,0.0006972497794777155,1610643000000
05/14/26 20:17:45.800342272,-0.03926444798707962,0.9529777765274048,0.2998302280902863,-0.0002651565591804683,-0.0005329569685272872,0.000268539966782555,1610644000000
05/14/26 20:17:45.801342464,-0.03911902755498886,0.9531400203704834,0.2999666929244995,-0.001910768216475844,-0.001192945055663586,5.632916872855276e-05,1610645000000
05/14/26 20:17:45.802342400,-0.03880289196968079,0.9534536004066467,0.3001826107501984,-0.00172527669928968,-0.001121220411732793,-0.0001187053130706772,1610646000000
05/14/26 20:17:45.803342336,-0.03909964486956596,0.9538079500198364,0.3005150556564331,-0.0006381223211064935,-0.002259870991110802,-4.983977851225063e-05,1610647000000
05/14/26 20:17:45.804342272,-0.03908237814903259,0.9542639851570129,0.2997595369815826,-0.001309928018599749,-0.002282147295773029,0.001364682801067829,1610648000000
05/14/26 20:17:45.805342208,-0.03917355462908745,0.9541863203048706,0.2990218997001648,-0.00192736554890871,-0.001009030151180923,0.001590867177583277,1610649000000
05/14/26 20:17:45.806342144,-0.03928587585687637,0.9538906216621399,0.2995851933956146,-0.002881841501221061,9.809201583266258e-05,0.0002624824410304427,1610650000000
05/14/26 20:17:45.807342080,-0.0390285961329937,0.9534435272216797,0.3000924289226532,-0.002151981927454472,-0.0002285033406224102,-0.0004061178769916296,1610651000000
05/14/26 20:17:45.808342016,-0.03887321427464485,0.9534294009208679,0.2999374568462372,-0.001626032637432218,0.0004867234674748033,-0.0002235836000181735,1610652000000
05/14/26 20:17:45.809341952,-0.0389312207698822,0.9533345699310303,0.2999933063983917,-0.0002084752777591348,0.0005415665218606591,0.0006193353910930455,1610653000000
05/14/26 20:17:45.810341888,-0.03903583064675331,0.9535003304481506,0.3004688918590546,0.001416534301824868,0.001015830202959478,0.001046597957611084,1610654000000
05/14/26 20:17:45.811341824,-0.03915382549166679,0.9535431265830994,0.3005816340446472,0.0005175273981876671,0.0004381539765745401,0.0009228643029928207,1610655000000
05/14/26 20:17:45.812342016,-0.03909097984433174,0.9537382125854492,0.3007001280784607,0.0006282790564000607,0.001110657816752791,0.0004283312591724098,1610656000000
05/14/26 20:17:45.813342208,-0.03916922211647034,0.9534093141555786,0.3009187877178192,-0.001682165544480085,0.0007138695800676942,9.146644151769578e-05,1610657000000
05/14/26 20:17:45.814342400,-0.03946694359183311,0.952686071395874,0.3006987273693085,-0.004222794435918331,-0.001005633268505335,-0.0002132196095772088,1610658000000
05/14/26 20:17:45.815342592,-0.03898202255368233,0.9523288607597351,0.3004568219184875,-0.002162335906177759,-0.001089763594791293,-0.001115653198212385,1610659000000
05/14/26 20:17:45.816342528,-0.03868640214204788,0.9522376656532288,0.2997485995292664,-0.003632960375398397,-0.001554232905618846,-0.001316576031967998,1610660000000
05/14/26 20:17:45.817342464,-0.03815245628356934,0.9522156715393066,0.2991088628768921,-0.004222607240080833,-0.002020644955337048,-0.0002096414100378752,1610661000000
05/14/26 20:17:45.818342400,-0.03811280056834221,0.9517455101013184,0.2989559769630432,-0.003208114765584469,-0.002123652258887887,0.0003998239990323782,1610662000000
05/14/26 20:17:45.819342336,-0.03838276490569115,0.9510795474052429,0.2991065680980682,-0.0008690610993653536,-0.001567333121784031,0.001000098418444395,1610663000000
05/14/26 20:17:45.820342272,-0.0388227216899395,0.9504572153091431,0.2994265556335449,-4.600541433319449e-05,-0.0005073100328445435,0.0009134107967838645,1610664000000
05/14/26 20:17:45.821342208,-0.03855381533503532,0.9501192569732666,0.2994122207164764,0.0003913756809197366,-0.0008437955984845757,0.0007755986880511045,1610665000000
05/14/26 20:17:45.822342144,-0.03830374404788017,0.9504052400588989,0.2989425361156464,0.001087239012122154,-0.0009386116289533675,0.0005111724603921175,1610666000000
05/14/26 20:17:45.823342080,-0.03796431049704552,0.9514001607894897,0.2988229990005493,0.001369956880807877,0.0003108417731709778,-1.777388388291001e-05,1610667000000
05/14/26 20:17:45.824342272,-0.03787710517644882,0.9520137906074524,0.2996265292167664,0.001428180490620434,3.190856659784913e-05,0.0007718060514889657,1610668000000
05/14/26 20:17:45.825342464,-0.03813678398728371,0.9518839716911316,0.2998237609863281,0.0001546575222164392,-0.0003802238497883081,0.0006243102252483368,1610669000000
05/14/26 20:17:45.826342656,-0.03829393163323402,0.9517560601234436,0.2995947003364563,0.00018691411241889,0.0003382386057637632,0.0003556531155481935,1610670000000
05/14/26 20:17:45.827342592,-0.03842417150735855,0.9521891474723816,0.2998179197311401,0.0009975937427952886,-0.0001769475638866425,-6.314172060228884e-05,1610671000000
05/14/26 20:17:45.828342528,-0.03817667812108994,0.9526633620262146,0.2998674511909485,0.002130735432729125,-0.0005509306211024523,-0.0005169017822481692,1610672000000
05/14/26 20:17:45.829342464,-0.03774726390838623,0.9532413482666016,0.2998745739459991,-0.000251048943027854,-0.00120683410204947,0.00020694884005934,1610673000000
05/14/26 20:17:45.830342400,-0.03726890683174133,0.9535607099533081,0.3002433180809021,0.0003327553858980536,-0.001602265750989318,0.0006045929039828479,1610674000000
05/14/26 20:17:45.831342336,-0.03761434927582741,0.9539161920547485,0.300335556268692,-0.00116449489723891,-0.002737278584390879,-9.470409713685513e-05,1610675000000
05/14/26 20:17:45.832342272,-0.03815776109695435,0.9540086984634399,0.3006375432014465,0.0002213937696069479,-0.002087793778628111,-0.0002792242157738656,1610676000000
05/14/26 20:17:45.833342208,-0.03801366314291954,0.9540321826934814,0.3006156980991364,0.001231973408721387,-0.001335788983851671,-0.0003319497336633503,1610677000000
05/14/26 20:17:45.834342400,-0.0377972275018692,0.9538552761077881,0.3002383410930634,0.0008903820998966694,-0.001380117260850966,-0.0003418370033614337,1610678000000
05/14/26 20:17:45.835342336,-0.03783434629440308,0.9535319209098816,0.2999650239944458,-0.0001354090636596084,-0.0004632980562746525,-0.001262732548639178,1610679000000
05/14/26 20:17:45.836342272,-0.03812142834067345,0.9529920220375061,0.300182968378067,-0.002582286950200796,-0.0006995439762249589,-0.0006598554900847375,1610680000000
05/14/26 20:17:45.837342464,-0.03837836906313896,0.952677845954895,0.3006064295768738,-0.002706238999962807,-0.001006216392852366,-0.0006355037912726402,1610681000000
05/14/26 20:17:45.838342656,-0.03853954374790192,0.9519555568695068,0.300245612859726,-0.004240903072059155,-0.0008374989847652614,-0.000387173582566902,1610682000000
05/14/26 20:17:45.839342848,-0.03866960108280182,0.9519635438919067,0.2996984720230103,-0.005066358018666506,-0.000679386779665947,-9.115296415984631e-05,1610683000000
05/14/26 20:17:45.840342784,-0.03851013630628586,0.9528934955596924,0.3002096712589264,-0.0002700770273804665,0.0008627977222204208,-5.525902452063747e-05,1610684000000
05/14/26 20:17:45.841342720,-0.03791669011116028,0.95367032289505,0.2997693121433258,0.001811898779124022,0.0008865167619660497,-0.0003964734787587076,1610685000000
05/14/26 20:17:45.842342656,-0.03768109902739525,0.9542214870452881,0.2996601760387421,0.001190565875731409,0.001129864365793765,-0.0005790482391603291,1610686000000
05/14/26 20:17:45.843342592,-0.037713672965765,0.9542643427848816,0.300097644329071,-0.0007144702831283212,0.001300213858485222,-0.0002666567452251911,1610687000000
05/14/26 20:17:45.844342528,-0.03818618506193161,0.9540004134178162,0.3004864454269409,-0.001181560219265521,0.00237458199262619,0.0002634291886352003,1610688000000
05/14/26 20:17:45.845342720,-0.03857796266674995,0.9537531137466431,0.3005847036838531,-0.0006138044991530478,0.001013544271700084,0.0003852353256661445,1610689000000
05/14/26 20:17:45.846342656,-0.03885090351104736,0.9539706707000732,0.3012604415416718,0.0005505129811353981,0.0003532850532792509,6.334591307677329e-05,1610690000000
05/14/26 20:17:45.847342592,-0.0392041876912117,0.9538412094116211,0.3004980087280273,1.10417022369802e-05,-0.0001568123116157949,-0.000127192703075707,1610691000000
05/14/26 20:17:45.848342528,-0.03947551548480988,0.9534373879432678,0.3003160953521729,-0.0005783510860055685,-0.001212478149682283,-0.0003966623335145414,1610692000000
05/14/26 20:17:45.849342464,-0.03916701674461365,0.9525079131126404,0.3007363379001617,-0.001863958081230521,-0.000765893841162324,-0.0003304109559394419,1610693000000
05/14/26 20:17:45.850342400,-0.0385340116918087,0.952552855014801,0.3002771735191345,-0.001241164398379624,-0.002177133457735181,2.360079088248312e-05,1610694000000
05/14/26 20:17:45.851342336,-0.03847313672304153,0.9528433680534363,0.2999798953533173,0.0003117185551673174,-0.002046228619292378,0.0003275655617471784,1610695000000
05/14/26 20:17:45.852342272,-0.03864900767803192,0.9528277516365051,0.2998151481151581,-0.001033771550282836,-0.0006248698337003589,6.485218182206154e-05,1610696000000
05/14/26 20:17:45.853342208,-0.03832481801509857,0.9521791934967041,0.3000511825084686,-0.0005640605231747031,0.0005276412703096867,-0.0003527137741912156,1610697000000
05/14/26 20:17:45.854342144,-0.03842707350850105,0.9520196914672852,0.3001118898391724,0.0004609449533745646,0.0006823089206591249,-0.0005767898401245475,1610698000000
05/14/26 20:17:45.855342080,-0.03835499286651611,0.9515182375907898,0.3004071116447449,-0.0003407902549952269,0.0004888059920631349,-0.001083632465451956,1610699000000
05/14/26 20:17:45.856342016,-0.0385269895195961,0.9520390629768372,0.2998286187648773,-0.001928837038576603,0.0004492588632274419,-0.0007327517960220575,1610700000000
05/14/26 20:17:45.857342208,-0.03848310932517052,0.9517021179199219,0.2993171513080597,-0.001247940352186561,0.0004312980163376778,-0.0005399794317781925,1610701000000
05/14/26 20:17:45.858342144,-0.03884486109018326,0.9514411687850952,0.2996611595153809,-0.001892099273391068,-0.000158183480380103,-0.0003750559408217669,1610702000000
05/14/26 20:17:45.859342080,-0.03893200680613518,0.9511910676956177,0.2994686961174011,-6.682437378913164e-05,-0.0005275583826005459,0.0004656997043639421,1610703000000
05/14/26 20:17:45.860342272,-0.03876743465662003,0.9511287808418274,0.2990507185459137,0.001765317283570766,-0.000973558344412595,-3.122369525954127e-05,1610704000000
05/14/26 20:17:45.861342208,-0.03919154405593872,0.9510178565979004,0.2987647354602814,0.0002257786691188812,-0.0009571150876581669,-0.0004907050170004368,1610705000000
05/14/26 20:17:45.862342144,-0.038923729211092,0.9510858654975891,0.2987858355045319,0.0002044177235802636,0.0002030816394835711,-0.0008367616683244705,1610706000000
05/14/26 20:17:45.863342080,-0.03839913755655289,0.9511998295783997,0.2988815605640411,-4.436138260643929e-05,0.0005941468989476562,-0.00126617425121367,1610707000000
05/14/26 20:17:45.864342016,-0.03901668265461922,0.9515040516853333,0.2988179922103882,2.120544377248734e-05,0.001160279498435557,-0.0002131640212610364,1610708000000
05/14/26 20:17:45.865341952,-0.04018281772732735,0.9516724944114685,0.299183189868927,-0.002516099717468023,0.0004889508709311485,-0.0002922579296864569,1610709000000
05/14/26 20:17:45.866342144,-0.040277149528265,0.9517114162445068,0.299731433391571,-0.00407403102144599,-0.001175675657577813,-0.0007675979286432266,1610710000000
05/14/26 20:17:45.867342336,-0.03983974456787109,0.9515336751937866,0.2994887828826904,-0.004685556050390005,-0.001464814646169543,-0.0006526182987727225,1610711000000
05/14/26 20:17:45.868342272,-0.03954703733325005,0.9517726302146912,0.2991467416286469,-0.004717326257377863,-0.001746117137372494,-0.000393117981730029,1610712000000
05/14/26 20:17:45.869342208,-0.03891008719801903,0.9525659084320068,0.2996125817298889,-0.003329715225845575,-0.002632915508002043,-0.0003375303058419377,1610713000000
05/14/26 20:17:45.870342400,-0.03838229179382324,0.9526619911193848,0.3001875579357147,-0.001602944801561534,-0.00283919251523912,0.0001310909283347428,1610714000000
05/14/26 20:17:45.871342336,-0.0384417288005352,0.9525047540664673,0.3006993234157562,0.0008123150328174233,-0.0008128075860440731,0.000579221872612834,1610715000000
05/14/26 20:17:45.872342272,-0.03854947909712791,0.952192485332489,0.3008250296115875,-0.0004472206346690655,-0.001021300908178091,0.001279894029721618,1610716000000
05/14/26 20:17:45.873342208,-0.0384819507598877,0.9526706337928772,0.30085289478302,-3.804406151175499e-05,-0.0002830413868650794,0.0006364233558997512,1610717000000
05/14/26 20:17:45.874342144,-0.03818775340914726,0.9537040591239929,0.3000200688838959,0.0005284742219373584,-0.0003376394452061504,-0.0002130602370016277,1610718000000
05/14/26 20:17:45.875341824,-0.03820834681391716,0.9534897804260254,0.3000083863735199,0.001121393404901028,-0.0009356542723253369,-0.0003075632266700268,1610719000000
05/14/26 20:17:45.876342016,-0.03876623883843422,0.953719437122345,0.300381064414978,-0.0002557259285822511,0.0004369536181911826,0.0009469510987401009,1610720000000
05/14/26 20:17:45.877342208,-0.03880616277456284,0.9544245004653931,0.300837367773056,-0.0001462736690882593,0.0008879052475094795,0.001243274658918381,1610721000000
05/14/26 20:17:45.878342400,-0.03854126110672951,0.9542266726493835,0.3007601797580719,0.0005682507762685418,-4.482176154851913e-05,0.000618447142187506,1610722000000
05/14/26 20:17:45.879342336,-0.03857632353901863,0.9538034200668335,0.3004682958126068,-0.001448934315703809,0.0001870940322987735,0.0004761129384860396,1610723000000
05/14/26 20:17:45.880342272,-0.03876873850822449,0.9533325433731079,0.2997523844242096,-0.00146915705408901,-0.0001055350876413286,8.682641782797873e-05,1610724000000
05/14/26 20:17:45.881342208,-0.03909461572766304,0.9533108472824097,0.2995824217796326,-0.003913844935595989,-0.0001633435604162514,0.0001304173929383978,1610725000000
05/14/26 20:17:45.882342144,-0.03926517441868782,0.9540469646453857,0.2996280491352081,-0.001726845512166619,-0.0001926269615069032,-0.0004563804250210524,1610726000000
05/14/26 20:17:45.883342080,-0.03912235051393509,0.9542225003242493,0.2995429039001465,-0.00108944927342236,-0.001351336948573589,-0.001170553267002106,1610727000000
05/14/26 20:17:45.884342016,-0.03880727663636208,0.9538908004760742,0.2996163368225098,0.0006786244921386242,-0.002091169124469161,-0.0008880958193913102,1610728000000
05/14/26 20:17:45.885341696,-0.03919527307152748,0.953446090221405,0.2995466589927673,0.002395845483988523,-0.001231171889230609,9.338394738733768e-05,1610729000000
05/14/26 20:17:45.886341632,-0.03966176137328148,0.953250527381897,0.2999038398265839,0.001070298487320542,-0.0005609894287772477,0.0004549126606434584,1610730000000
05/14/26 20:17:45.887341824,-0.03986895829439163,0.9532972574234009,0.299898773431778,0.0006396973039954901,-0.0008609608048573136,8.515239460393786e-05,1610731000000
05/14/26 20:17:45.888342016,-0.03982552513480186,0.9533959627151489,0.2998965978622437,-0.001445257570594549,-0.0009326617000624537,-0.0002198881993535906,1610732000000
05/14/26 20:17:45.889341952,-0.03934674337506294,0.953421413898468,0.2996143102645874,-0.003237497992813587,-0.001063463161699474,-0.0002894654171541333,1610733000000
05/14/26 20:17:45.890342144,-0.0391388013958931,0.9523157477378845,0.2992708086967468,-0.002162999007850885,-0.001435162383131683,-0.0004352718824520707,1610734000000
05/14/26 20:17:45.891342080,-0.03909257426857948,0.9521418213844299,0.2992788851261139,-0.0009702387033030391,-0.00104657222982496,-1.287661143578589e-05,1610735000000
05/14/26 20:17:45.892342016,-0.03935946151614189,0.952467143535614,0.2995615899562836,0.001300733885727823,8.484255522489548e-05,0.0005396115593612194,1610736000000
05/14/26 20:17:45.893341952,-0.0398874543607235,0.9525481462478638,0.2995403409004211,0.002894700039178133,-0.0001089795405277982,-0.0002493119100108743,1610737000000
05/14/26 20:17:45.894341888,-0.04010304063558578,0.953406035900116,0.3002712428569794,0.00143955391831696,6.918155122548342e-05,0.0002700440818443894,1610738000000
05/14/26 20:17:45.895341824,-0.04015340656042099,0.9535205364227295,0.3007252216339111,0.001431563287042081,-0.0003477198188193142,0.0009703297982923687,1610739000000
05/14/26 20:17:45.896341504,-0.04035117477178574,0.9530845880508423,0.3009311556816101,-9.506684727966785e-05,-0.0004409385728649795,0.0004490285646170378,1610740000000
05/14/26 20:17:45.897341696,-0.04030228406190872,0.9530665278434753,0.3007020950317383,-0.0008209880325011909,-0.001044068019837141,9.123212657868862e-05,1610741000000
05/14/26 20:17:45.898341632,-0.04028844088315964,0.9529681801795959,0.3007412850856781,0.0005117689142934978,-0.0008383560925722122,-0.0008186499471776187,1610742000000
05/14/26 20:17:45.899341568,-0.03973212465643883,0.9535914063453674,0.3003734648227692,0.0008246228098869324,-0.001822731108404696,-0.0001103886170312762,1610743000000
05/14/26 20:17:45.900341504,-0.03942056745290756,0.9534643292427063,0.2997275292873383,-0.0001634744694456458,-0.003220124170184135,0.0002979871060233563,1610744000000
05/14/26 20:17:45.901341440,-0.03990063443779945,0.953528106212616,0.2999469339847565,-0.002126448787748814,-0.003101098584011197,0.0004104710533283651,1610745000000
05/14/26 20:17:45.902341376,-0.04038424789905548,0.9532734155654907,0.3003744781017303,-0.002114815404638648,-0.0005288103129714727,0.000781290524173528,1610746000000
05/14/26 20:17:45.903341312,-0.04059858247637749,0.9526599645614624,0.300388365983963,-0.002692442154511809,-2.319476334378123e-05,0.0002973652735818177,1610747000000
05/14/26 20:17:45.904341504,-0.0408349335193634,0.9527873992919922,0.3000225126743317,-2.837507054209709e-05,0.0006654479657299817,0.0001609197206562385,1610748000000
05/14/26 20:17:45.905341696,-0.04080082476139069,0.9530916810035706,0.2995632290840149,0.002931559225544333,0.0002390255976933986,-0.0001143406116170809,1610749000000
05/14/26 20:17:45.906341632,-0.04071047902107239,0.9520518779754639,0.2983454167842865,0.00282759522087872,0.000263364432612434,-0.000408151070587337,1610750000000
05/14/26 20:17:45.907341568,-0.04087771475315094,0.951708197593689,0.2983287870883942,0.002110597444698215,0.0006121644983068109,-0.0001257125695701689,1610751000000
05/14/26 20:17:45.908341504,-0.0406317338347435,0.9518981575965881,0.2980422973632812,0.001469306531362236,0.001508221263065934,-5.467011214932427e-05,1610752000000
05/14/26 20:17:45.909341696,-0.04019294306635857,0.95204097032547,0.2982484102249146,-0.000884193810634315,0.002772822976112366,0.000322777807014063,1610753000000
05/14/26 20:17:45.910341632,-0.04055541381239891,0.9527316689491272,0.2984856069087982,-0.003087929915636778,0.001810302026569843,0.000188005666132085,1610754000000
05/14/26 20:17:45.911341568,-0.04045978933572769,0.9530776143074036,0.2983553111553192,-0.001896006404422224,-0.0001523694954812527,3.145856317132711e-05,1610755000000
05/14/26 20:17:45.912341504,-0.03960136696696281,0.952599048614502,0.2985963523387909,-0.001265830011107028,0.0003063976182602346,0.000336255063302815,1610756000000
05/14/26 20:17:45.913341440,-0.03975975513458252,0.9525756239891052,0.299211859703064,-0.001470871968194842,-0.0008583416347391903,6.910428055562079e-05,1610757000000
05/14/26 20:17:45.914341376,-0.03998556733131409,0.9533127546310425,0.2994520962238312,0.0009227595292031765,-0.001952539430931211,-8.782859367784113e-06,1610758000000
05/14/26 20:17:45.915341312,-0.03976023569703102,0.9538628458976746,0.2996925115585327,0.0006952417315915227,-0.001274730311706662,-0.0001369950186926872,1610759000000
05/14/26 20:17:45.916341248,-0.03961453586816788,0.9539004564285278,0.2995648682117462,-3.871205262839794e-05,-0.0009985479991883039,0.0004156769427936524,1610760000000
05/14/26 20:17:45.917341184,-0.03939711675047874,0.9533528089523315,0.2991649508476257,-0.001712160650640726,-0.00107456324622035,-2.457946538925171e-05,1610761000000
05/14/26 20:17:45.918341120,-0.03999458998441696,0.9530422687530518,0.2990705966949463,-0.001415699138306081,-0.0007653951761312783,0.0002110506757162511,1610762000000
05/14/26 20:17:45.919341056,-0.04004564508795738,0.9527841210365295,0.2992324233055115,-0.001686872215941548,-0.001248859567567706,0.001081683905795217,1610763000000
05/14/26 20:17:45.920340992,-0.03950374945998192,0.9525261521339417,0.2984375059604645,-0.0009383419528603554,-0.001956353429704905,0.0005945781012997031,1610764000000
05/14/26 20:17:45.921340928,-0.03871217370033264,0.9529200792312622,0.2995374500751495,-0.001686186296865344,-0.001655858824960887,0.001058951020240784,1610765000000
05/14/26 20:17:45.922340864,-0.03861476108431816,0.9533913135528564,0.3000798225402832,-0.001174970180727541,-0.001115821884013712,0.001741650514304638,1610766000000
05/14/26 20:17:45.923340800,-0.03905854374170303,0.9537844657897949,0.2996571362018585,-0.000814843806438148,0.0001727651106193662,0.002019467065110803,1610767000000
05/14/26 20:17:45.924340736,-0.0394480787217617,0.9537894129753113,0.2993695139884949,0.0003172374563291669,-0.0001212043571285903,0.001151092350482941,1610768000000
05/14/26 20:17:45.925340672,-0.03926508873701096,0.9540693163871765,0.2987425327301025,0.0001259128912352026,-0.0001812210248317569,0.001059038564562798,1610769000000
05/14/26 20:17:45.926340608,-0.03921563923358917,0.9540437459945679,0.2988709807395935,-0.000496818742249161,-0.0008799292845651507,0.0002347843837924302,1610770000000
05/14/26 20:17:45.927340544,-0.03892302885651588,0.9537646174430847,0.2996390759944916,0.000488580612000078,-0.001872487249784172,-0.001130350166931748,1610771000000
05/14/26 20:17:45.928340480,-0.03923008218407631,0.952868640422821,0.2993670403957367,-0.001480680424720049,-0.003146701492369175,-0.0007480432977899909,1610772000000
05/14/26 20:17:45.929340672,-0.03958297893404961,0.9517238140106201,0.2990279495716095,-0.002077870070934296,-0.003680584486573935,-0.0001952198799699545,1610773000000
05/14/26 20:17:45.930340864,-0.03929738700389862,0.951536238193512,0.2988497316837311,-0.001282528974115849,-0.002531582489609718,0.0008519761031493545,1610774000000
05/14/26 20:17:45.931340800,-0.03885238990187645,0.9520462155342102,0.2990798056125641,-0.001919749309308827,-0.002137230476364493,0.0004149512678850442,1610775000000
05/14/26 20:17:45.932340736,-0.03864910826086998,0.9530020952224731,0.2996909320354462,-0.004848640877753496,-0.002262033754959702,0.000794326770119369,1610776000000
05/14/26 20:17:45.933340928,-0.03860172629356384,0.9536950588226318,0.3001149296760559,-0.00613834522664547,-0.002187542384490371,0.0008913748897612095,1610777000000
05/14/26 20:17:45.934341120,-0.03895947709679604,0.95367830991745,0.3003119230270386,-0.006094686686992645,-0.002281704684719443,0.001143896020948887,1610778000000
05/14/26 20:17:45.935341056,-0.03913519531488419,0.9532104730606079,0.3003605306148529,-0.004339288920164108,-0.001475729746744037,0.001195530639961362,1610779000000
05/14/26 20:17:45.936340992,-0.03880598768591881,0.9540172815322876,0.2999979555606842,-0.001710840035229921,-0.00222289189696312,0.000970914785284549,1610780000000
05/14/26 20:17:45.937340928,-0.03891782462596893,0.9548619389533997,0.29981529712677,0.0008919269312173128,-0.001368657336570323,-0.0001428428222425282,1610781000000
05/14/26 20:17:45.938340864,-0.03931665048003197,0.9541361331939697,0.2998706996440887,0.000254856888204813,-1.934263855218887e-05,-0.0009804405272006989,1610782000000
05/14/26 20:17:45.939340800,-0.03932078927755356,0.9532251358032227,0.2998843789100647,-0.0003634617896750569,-0.0005097792018204927,-0.00117545307148248,1610783000000
05/14/26 20:17:45.940340736,-0.03922408819198608,0.9527257084846497,0.2998893558979034,-0.001078465953469276,0.0008716128068044782,-0.0009902473539113998,1610784000000
05/14/26 20:17:45.941340928,-0.03901668265461922,0.9527935981750488,0.2996113896369934,-0.001132327946834266,0.001106937532313168,-0.0004824896459467709,1610785000000
05/14/26 20:17:45.942340864,-0.03914812207221985,0.9542928338050842,0.3001857399940491,-0.001046321936883032,-0.0001038984628394246,-0.0002483661519363523,1610786000000
05/14/26 20:17:45.943340800,-0.03908390924334526,0.9550217390060425,0.3005092740058899,0.0001246900064870715,0.0004210771294310689,-8.319005428347737e-05,1610787000000
05/14/26 20:17:45.944340736,-0.03897932916879654,0.9549198746681213,0.3004045188426971,0.001095754560083151,0.0006570016266778111,-5.304777005221695e-05,1610788000000
05/14/26 20:17:45.945340672,-0.03905671089887619,0.9532312750816345,0.299735963344574,-0.001450944924727082,-0.0006769397296011448,9.43829509196803e-05,1610789000000
05/14/26 20:17:45.946340608,-0.03879418596625328,0.9518938064575195,0.2995757162570953,-0.001368709141388535,-0.001105977687984705,0.0003588937688618898,1610790000000
05/14/26 20:17:45.947340544,-0.03835836797952652,0.9514796733856201,0.2992569506168365,-0.0005388367571868002,-0.003534588031470776,0.0003018758725374937,1610791000000
05/14/26 20:17:45.948340480,-0.03834496065974236,0.9515629410743713,0.2994584739208221,0.0003705863491632044,-0.002611665055155754,0.0005083182477392256,1610792000000
05/14/26 20:17:45.949340416,-0.03769185021519661,0.951680064201355,0.2994118928909302,-0.001750334864482284,-0.002030878094956279,0.0003400268615223467,1610793000000
05/14/26 20:17:45.950340096,-0.03828245773911476,0.9510599970817566,0.2985723316669464,-0.000296154641546309,-0.001657471526414156,-6.011794903315604e-05,1610794000000
05/14/26 20:17:45.951340032,-0.03861591592431068,0.9506347179412842,0.2984613478183746,-0.000398591480916366,-0.002620311221107841,-0.0005003619007766247,1610795000000
05/14/26 20:17:45.952339968,-0.0390680730342865,0.9507158398628235,0.2981599271297455,-0.0005315373418852687,-0.001120159518904984,-0.0008369386196136475,1610796000000
05/14/26 20:17:45.953339904,-0.03963549062609673,0.951935887336731,0.2981822192668915,-0.001959125977009535,0.0005162454908713698,0.0002470508916303515,1610797000000
05/14/26 20:17:45.954339840,-0.03976377472281456,0.9532510042190552,0.2989236116409302,-0.001595932058990002,0.0002158682327717543,0.0008545524324290454,1610798000000
05/14/26 20:17:45.955339776,-0.0396031029522419,0.9546799063682556,0.2999313771724701,0.0005765855312347412,-0.001360187074169517,0.0009903021855279803,1610799000000
05/14/26 20:17:45.956339712,-0.03985145315527916,0.9548423886299133,0.2997147440910339,0.003760426538065076,-0.001278731389902532,0.0003120566252619028,1610800000000
05/14/26 20:17:45.957339648,-0.03935763612389565,0.9549700617790222,0.2997522354125977,0.004651619587093592,-0.0005739881307817996,0.0003817383549176157,1610801000000
05/14/26 20:17:45.958339584,-0.03886042535305023,0.9549026489257812,0.2996659576892853,0.00252372887916863,0.001008787425234914,0.0002965194871649146,1610802000000
05/14/26 20:17:45.959339520,-0.03845979645848274,0.9547057747840881,0.3001057505607605,0.001329928869381547,0.001977270701900125,-0.000184166245162487,1610803000000
05/14/26 20:17:45.960339456,-0.03901570290327072,0.9548477530479431,0.3002153337001801,0.0002418904332444072,0.001867925515398383,0.0004017383907921612,1610804000000
05/14/26 20:17:45.961339648,-0.03924345597624779,0.9544185400009155,0.3004304170608521,-0.0005955235101282597,0.0009048035717569292,0.0001981976383831352,1610805000000
05/14/26 20:17:45.962339840,-0.03949013352394104,0.9532042741775513,0.2995617687702179,-0.001976447179913521,-0.0004876650054939091,0.0006158951437100768,1610806000000
05/14/26 20:17:45.963340032,-0.03927726671099663,0.952814519405365,0.2986082136631012,-0.001283886609598994,-0.0007063567754812539,0.0004768400103785098,1610807000000
05/14/26 20:17:45.964339968,-0.03848609700798988,0.9534620642662048,0.2978154122829437,-0.0003188830451108515,-0.0005259458557702601,-0.0004871810670010746,1610808000000
05/14/26 20:17:45.965339904,-0.03828904032707214,0.9537107348442078,0.2979949414730072,-0.0003153712314087898,-0.0005994807579554617,-0.0006003213347867131,1610809000000
05/14/26 20:17:45.966339840,-0.03823994472622871,0.95330810546875,0.2982235252857208,0.001671992707997561,-0.0001439728948753327,0.0001735318219289184,1610810000000
05/14/26 20:17:45.967339776,-0.03813788667321205,0.9526551365852356,0.2980011999607086,0.000774168292991817,0.0001986961578950286,0.0002544121816754341,1610811000000
05/14/26 20:17:45.968339712,-0.0378347672522068,0.9521244764328003,0.2979457378387451,0.0006938534788787365,3.06530564557761e-05,0.0007365384371951222,1610812000000
05/14/26 20:17:45.969339648,-0.03785115852952003,0.9518131017684937,0.298302948474884,0.00196454394608736,0.0008984695887193084,3.218423807993531e-05,1610813000000
05/14/26 20:17:45.970339584,-0.03795160353183746,0.9518309235572815,0.2985755801200867,0.002267934614792466,0.0008705935324542224,-0.0002539177075959742,1610814000000
05/14/26 20:17:45.971339520,-0.03862708806991577,0.9521139860153198,0.2981849908828735,0.0004861389752477407,0.001804878818802536,0.0001537866774015129,1610815000000
05/14/26 20:17:45.972339712,-0.03953747451305389,0.9516262412071228,0.2975439727306366,-0.0007567232241854072,0.001574424561113119,0.001641503535211086,1610816000000
05/14/26 20:17:45.973339904,-0.03984267637133598,0.9508592486381531,0.2979488670825958,-0.001870718086138368,0.00094554980751127,0.001773335854522884,1610817000000
05/14/26 20:17:45.974340096,-0.03945082426071167,0.9504873752593994,0.2982281148433685,-0.002613289281725883,0.0007905915263108909,0.000647443812340498,1610818000000
05/14/26 20:17:45.975340032,-0.03917449340224266,0.9505846500396729,0.2979221642017365,-0.003626813180744648,0.0008501432603225112,-0.0007804381893947721,1610819000000
05/14/26 20:17:45.976339968,-0.03911082074046135,0.9509793519973755,0.2977538704872131,-0.00421317620202899,0.0002813757746480405,-0.001006778213195503,1610820000000
05/14/26 20:17:45.977339904,-0.03918745741248131,0.9510795474052429,0.2978968024253845,-0.005398500245064497,-0.001349053811281919,-0.0008178080897778273,1610821000000
05/14/26 20:17:45.978339840,-0.03874444589018822,0.9504555463790894,0.29783695936203,-0.00429577985778451,-0.002193426946178079,-0.0005461045657284558,1610822000000
05/14/26 20:17:45.979339776,-0.03863511607050896,0.9501193761825562,0.2979162037372589,-0.002167005790397525,-0.002512740902602673,0.001473180716857314,1610823000000
05/14/26 20:17:45.980339712,-0.03851296380162239,0.9499446153640747,0.2978433668613434,-0.001997376326471567,-0.001901089795865119,0.001381787937134504,1610824000000
05/14/26 20:17:45.981339648,-0.03829586505889893,0.9500890970230103,0.2983800172805786,-0.001955316634848714,-0.002332523697987199,0.000549697782844305,1610825000000
05/14/26 20:17:45.982339584,-0.03861419856548309,0.950676441192627,0.2991586625576019,-0.003683623159304261,-0.001391238765791059,0.001285597332753241,1610826000000
05/14/26 20:17:45.983339520,-0.03859885036945343,0.9510006904602051,0.2995311617851257,-0.003976795356720686,-0.0008233579574152827,0.0008863552939146757,1610827000000
05/14/26 20:17:45.984339712,-0.03877891600131989,0.9516348838806152,0.2999898791313171,-0.004389808513224125,-0.001031491439789534,0.001144690555520356,1610828000000
05/14/26 20:17:45.985339648,-0.0385417565703392,0.95234614610672,0.2998202741146088,-0.003805622924119234,-0.00108692585490644,0.0006210827850736678,1610829000000
05/14/26 20:17:45.986339584,-0.03820265457034111,0.9536307454109192,0.3002325296401978,-0.001706210197880864,-0.0001731310039758682,0.0002448479935992509,1610830000000
05/14/26 20:17:45.987339520,-0.03848488256335258,0.9547775983810425,0.3009783923625946,-0.0007206173613667488,-0.0006452627712860703,0.0006156561430543661,1610831000000
05/14/26 20:17:45.988339456,-0.03873363509774208,0.9555122852325439,0.3007905185222626,-0.0003647702978923917,-0.001116776606068015,0.0002399153017904609,1610832000000
05/14/26 20:17:45.989339392,-0.03870410472154617,0.9554164409637451,0.301116406917572,0.0011350765125826,-0.001004103687591851,-8.694027201272547e-05,1610833000000
05/14/26 20:17:45.990339328,-0.03860397636890411,0.9553026556968689,0.3013807535171509,-0.0002460472751408815,-0.0009719359804876149,0.0005439360393211246,1610834000000
05/14/26 20:17:45.991339264,-0.03849026933312416,0.9543415307998657,0.30117067694664,-0.001161110354587436,-0.001889865146949887,0.001045176992192864,1610835000000
05/14/26 20:17:45.992339200,-0.03846310451626778,0.9541077613830566,0.3008434772491455,-0.001856081187725067,-0.00188492436427623,0.0008196845883503556,1610836000000
05/14/26 20:17:45.993339392,-0.03892438486218452,0.9534008502960205,0.3008590638637543,-0.001096915919333696,-0.001418290543369949,-0.0005183031316846609,1610837000000
05/14/26 20:17:45.994339328,-0.03912891447544098,0.9531399607658386,0.3004928827285767,0.0001126830466091633,9.844510350376368e-05,-0.0005045786965638399,1610838000000
05/14/26 20:17:45.995340032,-0.03899635747075081,0.9532635807991028,0.2995689809322357,0.0005102787399664521,0.0008192425593733788,0.0005363906966522336,1610839000000
05/14/26 20:17:45.996339968,-0.03878259286284447,0.9528318643569946,0.2994391024112701,-0.002417166251689196,-3.976619336754084e-05,0.0002289913245476782,1610840000000
05/14/26 20:17:45.997339904,-0.03835984319448471,0.9525435566902161,0.3002393543720245,-0.00346963619813323,-0.002333158161491156,4.583303234539926e-05,1610841000000
05/14/26 20:17:45.998339840,-0.03898843377828598,0.9531219601631165,0.3009002208709717,-0.003245608881115913,-0.002770134713500738,0.001278265379369259,1610842000000
05/14/26 20:17:45.999339776,-0.03913507610559464,0.9535415768623352,0.3013355433940887,-0.00248646130785346,-0.00310432561673224,0.002150420797988772,1610843000000
05/14/26 20:17:46.000339712,-0.03888968378305435,0.9541993737220764,0.3015293180942535,-0.0002277980092912912,-0.001925073214806616,0.001075438223779202,1610844000000
05/14/26 20:17:46.001339648,-0.03864637762308121,0.9545427560806274,0.3017588555812836,0.002994641428813338,-0.001535333110950887,0.0003338862443342805,1610845000000
05/14/26 20:17:46.002339840,-0.03858928754925728,0.9547178149223328,0.3017209768295288,0.003877228125929832,-0.00178015255369246,4.331930540502071e-05,1610846000000
05/14/26 20:17:46.003339776,-0.03801740705966949,0.9546645879745483,0.3020827174186707,0.003635594388470054,-0.001603707321919501,0.0005567124462686479,1610847000000
05/14/26 20:17:46.004339968,-0.03871316090226173,0.954936146736145,0.3019880652427673,0.003589531406760216,0.0008652271935716271,0.001027523307129741,1610848000000
05/14/26 20:17:46.005340160,-0.03944263979792595,0.9543479084968567,0.3012296855449677,0.00254133203998208,-0.0003924018237739801,0.0006849748315289617,1610849000000
05/14/26 20:17:46.006340096,-0.03896912932395935,0.9537380337715149,0.3008578717708588,0.0006454336689785123,-0.0005891334731131792,-0.0004367242800071836,1610850000000
05/14/26 20:17:46.007340288,-0.03867192193865776,0.9531331658363342,0.3008597493171692,0.0002931464987341315,0.001209906302392483,-0.0009461418958380818,1610851000000
05/14/26 20:17:46.008340224,-0.0390675775706768,0.9529904723167419,0.300864577293396,0.001356589258648455,0.001785369124263525,-0.0008429019944742322,1610852000000
05/14/26 20:17:46.009340160,-0.03897998109459877,0.952677309513092,0.3004038333892822,0.001622383715584874,0.0007783723995089531,-0.0006974049611017108,1610853000000
05/14/26 20:17:46.010340096,-0.03886855021119118,0.9523239135742188,0.2997390925884247,0.001433281926438212,-0.0008579009445384145,-0.0003092316328547895,1610854000000
05/14/26 20:17:46.011340032,-0.03847314417362213,0.9522303938865662,0.2985574901103973,0.0008119258563965559,3.167818067595363e-05,-0.0002145105972886086,1610855000000
05/14/26 20:17:46.012339968,-0.03791551664471626,0.951933741569519,0.2986361384391785,-0.0001362478942610323,0.000238179592997767,0.000283441215287894,1610856000000
05/14/26 20:17:46.013339904,-0.03769062459468842,0.9513095617294312,0.2988429963588715,-0.0001293334498768672,0.0009830053895711899,0.0002854173944797367,1610857000000
05/14/26 20:17:46.014339840,-0.03838277608156204,0.9511579871177673,0.2988986670970917,0.0005878980155102909,-0.0005919493269175291,0.0001673755759838969,1610858000000
05/14/26 20:17:46.015340032,-0.03901651874184608,0.9510281085968018,0.2987328767776489,0.001917465124279261,-0.001899968134239316,-0.0003359520633239299,1610859000000
05/14/26 20:17:46.016340224,-0.03916626796126366,0.9507148265838623,0.2986000180244446,0.002105833031237125,-0.0004637185484170914,0.0003465739137027413,1610860000000
05/14/26 20:17:46.017340416,-0.03901225700974464,0.9508227705955505,0.2982870936393738,0.002257478889077902,0.0001000156044028699,-0.0004140327509958297,1610861000000
05/14/26 20:17:46.018340352,-0.03962123766541481,0.9515954852104187,0.2984897494316101,0.0006762731354683638,0.0004762422468047589,0.0008023197297006845,1610862000000
05/14/26 20:17:46.019340288,-0.03948695957660675,0.952155590057373,0.2990904152393341,-0.0009680130751803517,0.000448390404926613,0.0007565670530311763,1610863000000
05/14/26 20:17:46.020340224,-0.03908345848321915,0.9520137310028076,0.2995101511478424,-0.0006539082387462258,0.0005494473734870553,0.0006252667517401278,1610864000000
05/14/26 20:17:46.021340160,-0.03907735645771027,0.9518848061561584,0.2995226383209229,-0.0002282270870637149,0.0002146284678019583,0.0002425774873699993,1610865000000
05/14/26 20:17:46.022340096,-0.03907417878508568,0.9522238969802856,0.299894392490387,-0.000357004813849926,-0.0003257995122112334,-0.0004257289401721209,1610866000000
05/14/26 20:17:46.023340032,-0.03861289843916893,0.9526740312576294,0.2996099889278412,0.002491252264007926,-0.001962183741852641,-0.0005992581718601286,1610867000000
05/14/26 20:17:46.024339968,-0.03849804401397705,0.9534289240837097,0.2994469404220581,0.001775009091943502,-0.0008321109926328063,-5.586381303146482e-05,1610868000000
05/14/26 20:17:46.025340160,-0.03847208619117737,0.9539768099784851,0.2996830642223358,-0.002208900172263384,2.598302671685815e-05,0.001023410586640239,1610869000000
05/14/26 20:17:46.026340352,-0.03855901211500168,0.9541119933128357,0.2998332679271698,-0.003524307161569595,-0.000243942893575877,0.0008179588476195931,1610870000000
05/14/26 20:17:46.027340544,-0.03876690566539764,0.9544272422790527,0.2997748851776123,-0.002907959278672934,0.0006154133006930351,0.0006436659605242312,1610871000000
05/14/26 20:17:46.028340480,-0.03881548717617989,0.9538572430610657,0.2996706366539001,-0.003803352825343609,0.001063876203261316,0.000379365956177935,1610872000000
05/14/26 20:17:46.029340416,-0.03919767215847969,0.9534409642219543,0.3000220656394958,-0.004020506516098976,-0.0004547964781522751,0.0003153644793201238,1610873000000
05/14/26 20:17:46.030340352,-0.03994302451610565,0.9537996053695679,0.2993709444999695,-0.004560949746519327,-0.002091675065457821,-0.0001590398605912924,1610874000000
05/14/26 20:17:46.031340288,-0.04002746939659119,0.9540653228759766,0.2992134988307953,-0.00491565465927124,-0.002704678568989038,0.0003089596284553409,1610875000000
05/14/26 20:17:46.032340224,-0.03985871374607086,0.9538525342941284,0.2998238205909729,-0.002668067114427686,-0.002404282102361321,0.0007619882235303521,1610876000000
05/14/26 20:17:46.033340160,-0.03945247083902359,0.953252375125885,0.299874871969223,-0.0003736740909516811,-0.001646451419219375,0.0006261540111154318,1610877000000
05/14/26 20:17:46.034340096,-0.03945083916187286,0.9529262185096741,0.2998866140842438,0.0007852927083149552,-0.001812634523957968,0.0003598779730964452,1610878000000
05/14/26 20:17:46.035340032,-0.03944627195596695,0.9528455138206482,0.3002630770206451,0.001059981295838952,-0.00209339801222086,0.0008735236478969455,1610879000000
05/14/26 20:17:46.036340224,-0.03944297507405281,0.9523608088493347,0.3001707494258881,-0.0002617222489789128,-0.0008826674893498421,0.001238928060047328,1610880000000
05/14/26 20:17:46.037341952,-0.03953585773706436,0.9521534442901611,0.2998703718185425,-0.001743735396303236,-0.001524729887023568,0.0007573383627459407,1610881000000
05/14/26 20:17:46.038342912,-0.0396469384431839,0.9527514576911926,0.3000712692737579,-0.001279128715395927,-0.001804328989237547,0.0007497832411900163,1610882000000
05/14/26 20:17:46.039342848,-0.03967893496155739,0.9531719088554382,0.3000265061855316,-0.0003687817952595651,0.0002176107373088598,3.898038994520903e-05,1610883000000
05/14/26 20:17:46.040343040,-0.03950487822294235,0.9528120756149292,0.2996493577957153,-0.002376413205638528,0.0006057713180780411,0.0002243121271021664,1610884000000
05/14/26 20:17:46.041342976,-0.03880903497338295,0.9530918598175049,0.2992751896381378,-0.004597053863108158,-0.0003398581757210195,0.0002840468368958682,1610885000000
05/14/26 20:17:46.042342912,-0.03910517692565918,0.9529770612716675,0.2993704974651337,-0.002702476922422647,-0.001150015275925398,0.0005111151840537786,1610886000000
05/14/26 20:17:46.043343104,-0.04011116549372673,0.9528593420982361,0.2990305423736572,-0.001549844164401293,-0.002379744546487927,0.0005663856863975525,1610887000000
05/14/26 20:17:46.044343040,-0.0407211147248745,0.9527401328086853,0.2993215024471283,-0.0009252295712940395,-0.002219757298007607,-0.0005790871800854802,1610888000000
05/14/26 20:17:46.045342976,-0.04058912023901939,0.9522480964660645,0.2996678650379181,-0.0007732705562375486,-0.002297560451552272,-0.0006241989904083312,1610889000000
05/14/26 20:17:46.046342912,-0.04008831828832626,0.951946496963501,0.300580769777298,-3.265641862526536e-05,-0.00127886759582907,-6.573565769940615e-05,1610890000000
05/14/26 20:17:46.047342848,-0.03913318365812302,0.9523322582244873,0.3005194962024689,-0.001713212346658111,-0.001831755856983364,0.000430779648013413,1610891000000
05/14/26 20:17:46.048342784,-0.03909362107515335,0.9529772996902466,0.2998589873313904,-0.003397844266146421,-0.0004559011431410909,0.0002129797358065844,1610892000000
05/14/26 20:17:46.049342720,-0.03926999494433403,0.953137993812561,0.2995121479034424,-0.002418063348159194,-0.0002444603596813977,-0.0003121960908174515,1610893000000
05/14/26 20:17:46.050342656,-0.03940058499574661,0.9534539580345154,0.2992417514324188,-0.00345594622194767,-0.0005406213458627462,0.0007277561817318201,1610894000000
05/14/26 20:17:46.051342592,-0.03933557495474815,0.9535259604454041,0.2998269200325012,-0.001264211721718311,-0.0002634426346048713,0.001312392647378147,1610895000000
05/14/26 20:17:46.052342528,-0.03959795832633972,0.9533592462539673,0.3000640869140625,0.001466684276238084,-0.000196182489162311,0.0009798432001844049,1610896000000
05/14/26 20:17:46.053342464,-0.03957291692495346,0.9530391693115234,0.2999349534511566,0.003403604030609131,-6.600850610993803e-05,0.001466711517423391,1610897000000
05/14/26 20:17:46.054342400,-0.03965999931097031,0.9529615640640259,0.2997169196605682,0.001903093885630369,-0.0001516113406978548,0.001711837598122656,1610898000000
05/14/26 20:17:46.055342336,-0.03940066695213318,0.9529398679733276,0.3000331223011017,0.0002682122867554426,-0.0006427780608646572,0.001782254199497402,1610899000000
05/14/26 20:17:46.056342272,-0.03952609747648239,0.9533076286315918,0.3001114428043365,-0.00139433576259762,0.0005162327433936298,0.0007679812842980027,1610900000000
05/14/26 20:17:46.057342464,-0.03965000808238983,0.95367830991745,0.2995722889900208,-0.002156731905415654,0.0006769998581148684,0.0007533070165663958,1610901000000
05/14/26 20:17:46.058342656,-0.04015136137604713,0.9528411626815796,0.2988044321537018,-0.001556964591145515,0.0004948415444232523,0.0007413598359562457,1610902000000
05/14/26 20:17:46.059342848,-0.04008870199322701,0.9516168832778931,0.2988079190254211,-0.001312970882281661,-1.558451913297176e-05,-0.0003064388292841613,1610903000000
05/14/26 20:17:46.060343040,-0.03960698843002319,0.9515035152435303,0.2983419597148895,-0.0006817647954449058,-0.000243212329223752,-0.001141857355833054,1610904000000
05/14/26 20:17:46.061342976,-0.03930248320102692,0.9514771699905396,0.2982259094715118,-0.0003895311674568802,-0.0007627698942087591,-0.0009934293339028955,1610905000000
05/14/26 20:17:46.062342912,-0.03950937837362289,0.9512894749641418,0.2983831167221069,-0.0009075752459466457,-0.001355033367872238,-0.0006047005299478769,1610906000000
05/14/26 20:17:46.063343104,-0.03956262767314911,0.9512451887130737,0.2987907528877258,-0.002756165573373437,-0.001839817618019879,-0.0001494821917731315,1610907000000
05/14/26 20:17:46.064343040,-0.0405021533370018,0.9515107274055481,0.2988046109676361,-0.002252851380035281,-0.003244660561904311,-0.0008514396613463759,1610908000000
05/14/26 20:17:46.065342976,-0.04025392979383469,0.9524059891700745,0.2991754114627838,0.000769822858273983,-0.003011212917044759,-0.0008115142700262368,1610909000000
05/14/26 20:17:46.066342912,-0.03991638869047165,0.9525321125984192,0.2994472682476044,0.001380773726850748,-0.0005146537441760302,-0.0007980210357345641,1610910000000
05/14/26 20:17:46.067342592,-0.03937562182545662,0.9525637030601501,0.2994179129600525,0.002803392242640257,0.001016764552332461,-0.0003427646588534117,1610911000000
05/14/26 20:17:46.068342528,-0.03878084570169449,0.9521995186805725,0.2993146181106567,0.002900316845625639,0.001505530206486583,-0.0001193402422359213,1610912000000
05/14/26 20:17:46.069342464,-0.03891384974122047,0.9524807333946228,0.299195408821106,0.0007264160085469484,0.001960859866812825,6.572488928213716e-05,1610913000000
05/14/26 20:17:46.070342656,-0.03893636167049408,0.9532920122146606,0.2999968826770782,-0.001539697404950857,0.001965024275705218,0.0003533917188178748,1610914000000
05/14/26 20:17:46.071342848,-0.03922060504555702,0.9539507627487183,0.3005625605583191,-0.0006916393176652491,0.002426865510642529,0.0005257612210698426,1610915000000
05/14/26 20:17:46.072342784,-0.03938528895378113,0.953463613986969,0.3008853793144226,-0.0006136766751296818,0.001608426216989756,-0.0004738623392768204,1610916000000
05/14/26 20:17:46.073342976,-0.03961045667529106,0.9531645178794861,0.3006890714168549,-0.000708092178683728,0.001645482960157096,-0.0005963361472822726,1610917000000
05/14/26 20:17:46.074343168,-0.03976133093237877,0.9532767534255981,0.3002714812755585,-0.00096418138127774,0.0001594765344634652,-0.000271330529358238,1610918000000
05/14/26 20:17:46.075343104,-0.04007385671138763,0.9534884095191956,0.2999877333641052,-0.0001213822397403419,-0.0004295387770980597,-0.0008967791800387204,1610919000000
05/14/26 20:17:46.076343040,-0.04024472832679749,0.9535400867462158,0.2998266220092773,-0.0001237686810782179,0.0001223583822138608,-0.0002339024213142693,1610920000000
05/14/26 20:17:46.077342976,-0.03962955623865128,0.9535523653030396,0.3000636398792267,-0.00104499701410532,0.0004749285290017724,0.0005116132670082152,1610921000000
05/14/26 20:17:46.078342912,-0.0395740270614624,0.9536466598510742,0.3004906475543976,-0.0007953793974593282,0.0004317663551773876,0.0002205762430094182,1610922000000
05/14/26 20:17:46.079342848,-0.03993796929717064,0.9532098770141602,0.3006885051727295,-0.00119140069000423,0.0003059847804252058,0.0003853553207591176,1610923000000
05/14/26 20:17:46.080343040,-0.0403088852763176,0.9531959891319275,0.3000883758068085,-0.001875529764220119,-0.001696498482488096,0.0005488594761118293,1610924000000
05/14/26 20:17:46.081343232,-0.04039920493960381,0.9530982375144958,0.2992055416107178,-0.0009084474295377731,-0.001128030475229025,-0.000236960593611002,1610925000000
05/14/26 20:17:46.082343168,-0.04041793569922447,0.9526105523109436,0.2988105714321136,0.0002550837816670537,-0.001104392576962709,-0.0005460765678435564,1610926000000
05/14/26 20:17:46.083343104,-0.0400501973927021,0.9531417489051819,0.2987066805362701,8.82255844771862e-05,-0.0005207314388826489,7.451017154380679e-05,1610927000000
05/14/26 20:17:46.084343040,-0.03967725485563278,0.9534522891044617,0.2993283271789551,-0.0002815654152072966,0.0001893573789857328,0.0004617215308826417,1610928000000
05/14/26 20:17:46.085342976,-0.03968615829944611,0.9532500505447388,0.2997564375400543,0.0001135316269937903,0.0007135493215173483,0.00113268184941262,1610929000000
05/14/26 20:17:46.086342912,-0.04006010293960571,0.9533880352973938,0.2996766567230225,0.0002072307106573135,0.0007151970057748258,0.00117467762902379,1610930000000
05/14/26 20:17:46.087342848,-0.03996031358838081,0.9531430006027222,0.2993791997432709,-9.009119821712375e-06,1.300504663959146e-05,-0.0001974465558305383,1610931000000
05/14/26 20:17:46.088342528,-0.04021408036351204,0.9532696604728699,0.2994017004966736,-0.001218145131133497,0.0006611717981286347,-0.0006369646289385855,1610932000000
05/14/26 20:17:46.089342464,-0.03962560743093491,0.9534835815429688,0.2993078827857971,-0.0005852562608197331,0.001392527250573039,-0.000873116310685873,1610933000000
05/14/26 20:17:46.090342656,-0.03846141323447227,0.9541796445846558,0.299647718667984,-0.001497745513916016,0.0009996066801249981,-0.000237255182582885,1610934000000
05/14/26 20:17:46.091342848,-0.03836764395236969,0.9539757370948792,0.2996414601802826,-0.001272674999199808,0.0003306391299702227,-0.000546892813872546,1610935000000
05/14/26 20:17:46.092342784,-0.0387159027159214,0.9536500573158264,0.2997352778911591,-0.002963028382509947,-0.000294602825306356,0.0002010843018069863,1610936000000
05/14/26 20:17:46.093342720,-0.03870519250631332,0.953479528427124,0.3000346124172211,-0.004167236853390932,-0.001480173668824136,0.0007359408191405237,1610937000000
05/14/26 20:17:46.094342656,-0.03898348659276962,0.9533500075340271,0.3002952337265015,-0.002603479195386171,-0.003164799883961678,0.00096976722124964,1610938000000
05/14/26 20:17:46.095342592,-0.03868821635842323,0.9533182978630066,0.2999810874462128,-0.003271520137786865,-0.002743822056800127,0.0004600172396749258,1610939000000
05/14/26 20:17:46.096342528,-0.03852694854140282,0.9532174468040466,0.2997186481952667,-0.00262040738016367,-0.001719803083688021,-0.0005996361142024398,1610940000000
05/14/26 20:17:46.097342464,-0.03857747465372086,0.9529115557670593,0.2991025447845459,-0.0004803494084626436,-0.0008937654783949256,-0.000516909989528358,1610941000000
05/14/26 20:17:46.098342400,-0.03914537280797958,0.9529241323471069,0.2982187569141388,0.0006356931990012527,-0.0007037048926576972,0.0005423987749963999,1610942000000
05/14/26 20:17:46.099342336,-0.03882148116827011,0.9532044529914856,0.2979993224143982,-0.0004893309669569135,-0.001011889427900314,-0.0002278334577567875,1610943000000
05/14/26 20:17:46.100342528,-0.03920760005712509,0.9532771706581116,0.2982275187969208,0.0008673255797475576,-0.001089533092454076,-7.841097249183804e-05,1610944000000
05/14/26 20:17:46.101342720,-0.04004272073507309,0.9532984495162964,0.2981977462768555,0.0008439234225079417,-0.0008699424215592444,0.0007689644116908312,1610945000000
05/14/26 20:17:46.102342656,-0.04024762287735939,0.9524726271629333,0.2983764410018921,-0.0003433757228776813,-0.0009297988726757467,0.001092593185603619,1610946000000
05/14/26 20:17:46.103342848,-0.04001744091510773,0.9514402151107788,0.2990686595439911,-0.0005195223493501544,-6.749702151864767e-06,0.0009358527022413909,1610947000000
05/14/26 20:17:46.104343040,-0.03987004607915878,0.9508185982704163,0.2991452515125275,-9.965812205336988e-05,0.0006753035704605281,0.0006608612602576613,1610948000000
05/14/26 20:17:46.105342976,-0.03992424160242081,0.9507582783699036,0.2989819049835205,-0.0006833362858742476,0.001189390895888209,0.000600607949309051,1610949000000
05/14/26 20:17:46.106343168,-0.04002870991826057,0.9511150717735291,0.2985724210739136,-0.001410546246916056,0.0008507948368787766,0.000705418991856277,1610950000000
05/14/26 20:17:46.107343104,-0.03995957598090172,0.9518529176712036,0.2992073595523834,-0.001821946701966226,0.0004113231261726469,0.0005004261620342731,1610951000000
05/14/26 20:17:46.108343040,-0.03966266661882401,0.9524946212768555,0.2994500696659088,-0.00133550853934139,-0.0008370318682864308,0.0008039987878873944,1610952000000
05/14/26 20:17:46.109342976,-0.03959106653928757,0.9526488184928894,0.2992311120033264,4.956533666700125e-05,-0.00149273790884763,0.0002880793763324618,1610953000000
05/14/26 20:17:46.110342912,-0.03957335278391838,0.9528720378875732,0.2997305691242218,0.0006045770132914186,-0.001536370255053043,0.0001565264683449641,1610954000000
05/14/26 20:17:46.111343104,-0.03938150405883789,0.9532067179679871,0.3002218306064606,0.0002774200984276831,-0.0002641920000314713,0.0009371096966788173,1610955000000
05/14/26 20:17:46.112343296,-0.03924278914928436,0.9538385272026062,0.3000586628913879,0.0003118327294941992,-0.0001899611670523882,0.001124827889725566,1610956000000
05/14/26 20:17:46.113343232,-0.03901944682002068,0.9546374678611755,0.3000141084194183,-0.001187701942399144,-0.0004081345396116376,0.0009471628582105041,1610957000000
05/14/26 20:17:46.114343168,-0.03849903866648674,0.9549239873886108,0.2999079525470734,-0.002472139894962311,-0.000111562228994444,0.000794722989667207,1610958000000
05/14/26 20:17:46.115343104,-0.03855643793940544,0.9549939036369324,0.3000693619251251,-0.002887972397729754,0.0003042301104869694,0.0004141786776017398,1610959000000
05/14/26 20:17:46.116343040,-0.03819733113050461,0.9545472264289856,0.3011258840560913,0.0002560049761086702,-0.0001923039380926639,0.0005348795093595982,1610960000000
05/14/26 20:17:46.117342976,-0.03783459216356277,0.954527735710144,0.3009176850318909,0.001361767179332674,-0.0009924492333084345,-1.360120950266719e-05,1610961000000
05/14/26 20:17:46.118342912,-0.03840120509266853,0.9548876285552979,0.299944281578064,0.002343380590900779,-2.681463956832886e-05,-0.0001496752811362967,1610962000000
05/14/26 20:17:46.119342848,-0.03881781548261642,0.9549757242202759,0.2998967468738556,0.002814738312736154,0.001139221712946892,0.0001646336313569918,1610963000000
05/14/26 20:17:46.120342528,-0.03827081993222237,0.9538923501968384,0.3001586198806763,0.001399714965373278,0.0008332347497344017,1.675823295954615e-05,1610964000000
05/14/26 20:17:46.121342464,-0.03776462003588676,0.9527955651283264,0.3002224564552307,-0.002421857789158821,0.00134969491045922,0.0003463235916569829,1610965000000
05/14/26 20:17:46.122342656,-0.03801322728395462,0.9528077244758606,0.299872875213623,-0.002185442484915257,0.00124435918405652,0.0001857114402810112,1610966000000
05/14/26 20:17:46.123343104,-0.0377977266907692,0.9530879855155945,0.2994154691696167,-0.001090818201191723,0.0007455798331648111,0.000138657313073054,1610967000000
05/14/26 20:17:46.124343040,-0.03793282061815262,0.9528834223747253,0.2995818853378296,-0.001520879217423499,5.419936496764421e-05,0.0004829491954296827,1610968000000
05/14/26 20:17:46.125342976,-0.03824413567781448,0.9522822499275208,0.2997159957885742,-0.001173639320768416,0.0003523165942169726,-0.0002534249797463417,1610969000000
05/14/26 20:17:46.126342912,-0.03859440237283707,0.9519471526145935,0.3000295162200928,-0.0001802332699298859,0.0004307235358282924,-0.0006644605891779065,1610970000000
05/14/26 20:17:46.127342848,-0.03895681351423264,0.9520465731620789,0.3000145852565765,-0.0002789577993098646,0.0009203622466884553,-0.0002955386007670313,1610971000000
05/14/26 20:17:46.128342784,-0.03895637020468712,0.9519803524017334,0.3003823459148407,-0.001562408404424787,0.0009128943784162402,0.0002654521085787565,1610972000000
05/14/26 20:17:46.129342720,-0.03858764469623566,0.9519685506820679,0.3002808392047882,-0.000813874474260956,0.0004271720536053181,0.0002773738233372569,1610973000000
05/14/26 20:17:46.130342656,-0.03811701014637947,0.9527041912078857,0.3003452718257904,7.501314394176006e-05,-0.0002768537378869951,-0.0004172337939962745,1610974000000
05/14/26 20:17:46.131342336,-0.03781799599528313,0.9527917504310608,0.2999908328056335,0.0008669898961670697,0.0003788492758758366,-0.0005885885329917073,1610975000000
05/14/26 20:17:46.132342528,-0.03802835568785667,0.9525341987609863,0.2995386719703674,0.0002376127522438765,-4.855965380556881e-05,0.0004168441519141197,1610976000000
05/14/26 20:17:46.133342464,-0.0383637323975563,0.9520103931427002,0.2993414700031281,-0.0001520952500868589,-0.0004992862232029438,0.001240304438397288,1610977000000
05/14/26 20:17:46.134342400,-0.03854086622595787,0.9515145421028137,0.2992966771125793,-0.001524101826362312,0.0003189496928825974,0.0007485643145628273,1610978000000
05/14/26 20:17:46.135342336,-0.0385827049612999,0.9519489407539368,0.2991905808448792,-0.001489553018473089,0.001548428437672555,0.0002812447492033243,1610979000000
05/14/26 20:17:46.136342272,-0.03877243027091026,0.9524253606796265,0.2994452118873596,-0.0007779065053910017,0.0007855251315049827,-0.0006452035158872604,1610980000000
05/14/26 20:17:46.137342464,-0.03835440427064896,0.9523492455482483,0.2995957434177399,-0.001646669115871191,-0.000319953600410372,-0.0006297316867858171,1610981000000
05/14/26 20:17:46.138342400,-0.03760289028286934,0.9525152444839478,0.2999918758869171,-0.0008200561860576272,-0.001731065334752202,-0.0001684226735960692,1610982000000
05/14/26 20:17:46.139342336,-0.03723544999957085,0.9526518583297729,0.2997155487537384,-0.00121035217307508,-0.001367375021800399,0.0008685714565217495,1610983000000
05/14/26 20:17:46.140342528,-0.0374259389936924,0.9521282315254211,0.2992815673351288,-0.001657985150814056,-0.00115395593456924,8.06990428827703e-05,1610984000000
05/14/26 20:17:46.141342464,-0.03784486278891563,0.9518116116523743,0.2989996075630188,-0.0004803903866559267,-0.0001835130387917161,-0.0001182684936793521,1610985000000
05/14/26 20:17:46.142342400,-0.0387839563190937,0.9519240856170654,0.2992179393768311,-0.0007698163390159607,0.001090350560843945,0.0002990372013300657,1610986000000
05/14/26 20:17:46.143342592,-0.03891755267977715,0.951674222946167,0.299271821975708,-0.001197969075292349,-0.0006888796342536807,0.0006332746124826372,1610987000000
05/14/26 20:17:46.144342528,-0.03895073011517525,0.951337456703186,0.2991912961006165,-0.003278319025412202,-0.001223692903295159,0.001421937951818109,1610988000000
05/14/26 20:17:46.145342464,-0.03830190002918243,0.9517178535461426,0.2994436323642731,-0.002276946092024446,-0.001003730110824108,0.0005640671006403863,1610989000000
05/14/26 20:17:46.146342400,-0.03823160380125046,0.9521815180778503,0.2997819483280182,-0.0002968127373605967,-0.0006152206333354115,-0.0002344849053770304,1610990000000
05/14/26 20:17:46.147342336,-0.0384034663438797,0.9521979093551636,0.299955815076828,0.0003115979488939047,-6.118457531556487e-05,-7.871031994000077e-05,1610991000000
05/14/26 20:17:46.148342272,-0.03845085948705673,0.9525737166404724,0.2994393706321716,-0.0002165965270251036,0.00076871836790815,0.0004253038205206394,1610992000000
05/14/26 20:17:46.149342208,-0.0382743775844574,0.9527598023414612,0.2995897531509399,0.001987644238397479,0.0003847001644317061,0.001228162902407348,1610993000000
05/14/26 20:17:46.150342144,-0.03804505988955498,0.9526209831237793,0.2997188866138458,0.001359958434477448,0.0005164752365089953,0.0007361993193626404,1610994000000
05/14/26 20:17:46.151342080,-0.03799569234251976,0.9523963332176208,0.2991947531700134,5.296454764902592e-05,-0.0002673170529305935,0.0003928303194697946,1610995000000
05/14/26 20:17:46.152342016,-0.03816861286759377,0.9525270462036133,0.2991613149642944,-5.270467227092013e-05,-0.0009231180301867425,-0.0006254069739952683,1610996000000
05/14/26 20:17:46.153342208,-0.03811569884419441,0.9527416825294495,0.2998010218143463,0.0001361171889584512,-0.001188756665214896,-0.0002944451116491109,1610997000000
05/14/26 20:17:46.154342144,-0.03819607943296432,0.9530689120292664,0.2994920015335083,-0.0002999859862029552,-7.487752009183168e-05,-9.275371849071234e-05,1610998000000
05/14/26 20:17:46.155342336,-0.03877725079655647,0.9529630541801453,0.2986818552017212,-0.0002894462668336928,7.794291013851762e-05,-4.752698805532418e-05,1610999000000
05/14/26 20:17:46.156342528,-0.03863555192947388,0.9532191157341003,0.2992236018180847,-0.001557658892124891,-0.001153976423665881,8.568186603952199e-05,1611000000000
05/14/26 20:17:46.157342464,-0.03831892460584641,0.9537470936775208,0.2998138666152954,-0.003022430464625359,-0.001914377091452479,0.0002442930126562715,1611001000000
05/14/26 20:17:46.158342400,-0.03861542046070099,0.9537839293479919,0.3001435101032257,-0.00243345508351922,-0.001981464680284262,-6.945626228116453e-05,1611002000000
05/14/26 20:17:46.159342336,-0.03878124058246613,0.9537912011146545,0.2997602522373199,-0.0003201246727257967,-0.001196448458358645,-0.0003865586768370122,1611003000000
05/14/26 20:17:46.160342272,-0.03919221088290215,0.953239381313324,0.2993957102298737,0.0004249814664945006,-0.001008132006973028,-0.000233728249440901,1611004000000
05/14/26 20:17:46.161342208,-0.03910382837057114,0.9534767270088196,0.2993982434272766,0.001296372385695577,-0.001411383622325957,0.0004935072502121329,1611005000000
05/14/26 20:17:46.162342144,-0.03907708451151848,0.9541841149330139,0.29986172914505,0.0002215735148638487,-0.0005787060945294797,0.000793158367741853,1611006000000
05/14/26 20:17:46.163341824,-0.03888778761029243,0.9542596936225891,0.3000645637512207,-0.001200621947646141,-0.0006138469907455146,0.0002934751100838184,1611007000000
05/14/26 20:17:46.164342016,-0.03902951255440712,0.9542757272720337,0.2998360097408295,-0.001890443963930011,-0.0009706371929496527,0.0008713258430361748,1611008000000
05/14/26 20:17:46.165341952,-0.03933785483241081,0.9540014863014221,0.2999695241451263,-0.001592379412613809,-0.00140832329634577,0.0008875412750057876,1611009000000
05/14/26 20:17:46.166341888,-0.0397820733487606,0.9539420008659363,0.3000992834568024,-0.001285500475205481,-0.0009370632469654083,0.001122120767831802,1611010000000
05/14/26 20:17:46.167341824,-0.03970805555582047,0.9536477327346802,0.2998530268669128,-0.001557679031975567,-0.0005900819669477642,0.0007188930176198483,1611011000000
05/14/26 20:17:46.168341760,-0.03997224196791649,0.9532007575035095,0.2999835610389709,0.001046910299919546,0.0001881147036328912,0.0008395591285079718,1611012000000
05/14/26 20:17:46.169341696,-0.03976395353674889,0.9532752633094788,0.2991779148578644,0.002599752275273204,0.0001483007508795708,0.0007510468713007867,1611013000000
05/14/26 20:17:46.170341632,-0.03998783230781555,0.9534856081008911,0.299165278673172,0.002047327812761068,-0.0005499660037457943,0.0008524863515049219,1611014000000
05/14/26 20:17:46.171341568,-0.0401310883462429,0.9534403681755066,0.2993471324443817,0.0004096106858924031,-0.0001405611110385507,0.0005323296063579619,1611015000000
05/14/26 20:17:46.172341504,-0.03997914865612984,0.9533307552337646,0.2992973029613495,-0.0006913550896570086,-0.0001533501199446619,0.0005723180947825313,1611016000000
05/14/26 20:17:46.173341440,-0.03995132446289062,0.9524685740470886,0.2986430823802948,-0.0007291851215995848,-0.0005160965956747532,-0.0004643893335014582,1611017000000
05/14/26 20:17:46.174341120,-0.0396687351167202,0.9521737098693848,0.2984821498394012,-0.0005308352992869914,-0.002102687256410718,-0.0003676946216728538,1611018000000
05/14/26 20:17:46.175341312,-0.03913461416959763,0.9521971940994263,0.2984403073787689,0.0002075765514746308,-0.0009763910202309489,0.0003453081881161779,1611019000000
05/14/26 20:17:46.176341248,-0.03908823430538177,0.952386736869812,0.2988936603069305,-0.0005395052721723914,-0.001044429489411414,6.518600275740027e-05,1611020000000
05/14/26 20:17:46.177341440,-0.0391763411462307,0.9525223970413208,0.2983557879924774,-0.0009454488754272461,-0.001988406525924802,-0.0002281356137245893,1611021000000
05/14/26 20:17:46.178341376,-0.03873500227928162,0.9520021080970764,0.2981313169002533,-0.001485197804868221,-0.001068633049726486,-0.0004132961330469698,1611022000000
05/14/26 20:17:46.179341312,-0.03918009996414185,0.9519714713096619,0.2985436022281647,-0.0003162678331136703,-0.0006177321774885058,-0.0003510200185701251,1611023000000
05/14/26 20:17:46.180341248,-0.03984980657696724,0.9528895020484924,0.2982741892337799,0.001593784894794226,-5.525810411199927e-05,-0.0004619440587703139,1611024000000
05/14/26 20:17:46.181341184,-0.03992141410708427,0.9534807801246643,0.2977431118488312,0.002053275238722563,0.0003061062598135322,-0.0002577929408289492,1611025000000
05/14/26 20:17:46.182341120,-0.03984016552567482,0.9538082480430603,0.2979839444160461,0.002510237507522106,-0.0001852427085395902,0.0007152576581574976,1611026000000
05/14/26 20:17:46.183341056,-0.03981974348425865,0.9535169005393982,0.298045426607132,0.0004164362326264381,-0.0004155779315624386,0.001082994276657701,1611027000000
05/14/26 20:17:46.184340736,-0.03954162448644638,0.9531697630882263,0.298153281211853,-0.0007883305661380291,0.000448432081611827,0.001286971149966121,1611028000000
05/14/26 20:17:46.185340928,-0.03993449732661247,0.9533650875091553,0.2989214360713959,0.0006681664381176233,8.044714923016727e-05,0.001095056300982833,1611029000000
05/14/26 20:17:46.186341120,-0.0399341769516468,0.9534134864807129,0.2992892265319824,-0.001772842137143016,3.241868398617953e-06,2.256152220070362e-05,1611030000000
05/14/26 20:17:46.187341312,-0.03974434360861778,0.9535191655158997,0.299745500087738,-0.00213545560836792,-0.0005909837200306356,-0.0005846863496117294,1611031000000
05/14/26 20:17:46.188341504,-0.03951331973075867,0.9533565640449524,0.299761176109314,-0.001416099490597844,-0.0009758960222825408,-0.0008517834939993918,1611032000000
05/14/26 20:17:46.189341440,-0.03974179923534393,0.9528569579124451,0.2996756434440613,-0.001826664782129228,-0.0009401676943525672,1.527072163298726e-05,1611033000000
05/14/26 20:17:46.190341376,-0.0395185612142086,0.952734649181366,0.2998401820659637,-0.001234183786436915,-0.002092771232128143,-0.0002430789463687688,1611034000000
05/14/26 20:17:46.191341312,-0.03992750868201256,0.9532598257064819,0.2995130121707916,-0.002124907448887825,-0.002025645226240158,4.405280924402177e-05,1611035000000
05/14/26 20:17:46.192341248,-0.04002641141414642,0.9531086683273315,0.2991564273834229,-0.00245459983125329,-0.002017032355070114,0.0004617902741301805,1611036000000
05/14/26 20:17:46.193341184,-0.03977199271321297,0.9528844356536865,0.299530953168869,-0.00218117400072515,-0.0007507915142923594,9.526501526124775e-05,1611037000000
05/14/26 20:17:46.194341120,-0.03943410143256187,0.9528293013572693,0.2998023629188538,-0.001989441690966487,-0.001250156899914145,0.0004740528529509902,1611038000000
05/14/26 20:17:46.195341056,-0.03916312381625175,0.9530946612358093,0.3000490367412567,-0.002876382786780596,-0.002176251728087664,0.0006888784118928015,1611039000000
05/14/26 20:17:46.196340992,-0.03910296410322189,0.9530720710754395,0.3001071214675903,-0.005410190671682358,-0.001460377010516822,0.0005204704939387739,1611040000000
05/14/26 20:17:46.197340928,-0.038990817964077,0.9534356594085693,0.3001216948032379,-0.003007767954841256,-0.001175613957457244,0.0009197300532832742,1611041000000
05/14/26 20:17:46.198340864,-0.03914613649249077,0.9532428979873657,0.2999451160430908,-0.001392135745845735,-0.0008816642221063375,0.0006628535920754075,1611042000000
05/14/26 20:17:46.199340800,-0.03946464136242867,0.9528247117996216,0.2995390892028809,-0.001100793131627142,-0.0002453868510201573,0.0006066394853405654,1611043000000
05/14/26 20:17:46.200340736,-0.03935578837990761,0.9520760774612427,0.2992552518844604,0.0007118610665202141,-0.0006922365864738822,0.0003478013968560845,1611044000000
05/14/26 20:17:46.201340672,-0.03849504142999649,0.9516223073005676,0.2997332811355591,0.0007016768795438111,-0.001609478844329715,0.0004120649246033281,1611045000000
05/14/26 20:17:46.202340608,-0.03810302168130875,0.9516017436981201,0.2996627688407898,-0.0002418180811218917,-0.001708959462121129,0.0004288867057766765,1611046000000
05/14/26 20:17:46.203340544,-0.03865574672818184,0.9519671201705933,0.2995587289333344,-0.001512054353952408,-0.001499214209616184,-0.0008351416327059269,1611047000000
05/14/26 20:17:46.204340480,-0.03869133070111275,0.9522390365600586,0.2999014854431152,-0.001484646811150014,-0.0009847099427133799,-0.0004518356581684202,1611048000000
05/14/26 20:17:46.205340416,-0.0384233370423317,0.9527648091316223,0.3000714778900146,-0.001601167488843203,-0.0004903938970528543,0.0007936354959383607,1611049000000
05/14/26 20:17:46.206340352,-0.03882681578397751,0.9532643556594849,0.3000217378139496,-0.001874695299193263,-0.001404417445883155,0.0006362491403706372,1611050000000
05/14/26 20:17:46.207340544,-0.03929571434855461,0.9539477229118347,0.299732893705368,-0.002404748927801847,-0.001973732141777873,0.0009501344757154584,1611051000000
05/14/26 20:17:46.208340480,-0.03949941322207451,0.9542942047119141,0.2998513281345367,-0.004604451823979616,-0.002230550860986114,0.0003466559574007988,1611052000000
05/14/26 20:17:46.209340416,-0.03945529460906982,0.9542828798294067,0.3001569509506226,-0.005027814768254757,-0.001008506398648024,0.0005492026102729142,1611053000000
05/14/26 20:17:46.210340352,-0.03954127430915833,0.9536339640617371,0.3001425862312317,-0.003033641492947936,-0.001059660222381353,0.0009309174492955208,1611054000000
05/14/26 20:17:46.211340288,-0.03983817249536514,0.953481137752533,0.3003247678279877,-0.001048122765496373,-0.001658732770010829,0.0007819620659574866,1611055000000
05/14/26 20:17:46.212340224,-0.03971896693110466,0.9538141489028931,0.3005514442920685,0.0007184299174696207,-0.002162679564207792,0.0006226018304005265,1611056000000
05/14/26 20:17:46.213340160,-0.03969218209385872,0.9538043737411499,0.3008860349655151,0.001373588922433555,-0.001363749615848064,0.0004716262628789991,1611057000000
05/14/26 20:17:46.214340096,-0.03931321948766708,0.9538940191268921,0.3017049431800842,0.002930546179413795,-0.0009410135680809617,0.000774935819208622,1611058000000
05/14/26 20:17:46.215339776,-0.03921964392066002,0.9535444974899292,0.3016246557235718,0.0004022622015327215,-0.00048829335719347,0.0006322116823866963,1611059000000
05/14/26 20:17:46.216339712,-0.03929123282432556,0.9529979825019836,0.3009559214115143,-0.0004552624886855483,9.817967656999826e-05,0.0007118564681150019,1611060000000
05/14/26 20:17:46.217339648,-0.03921804949641228,0.9528629183769226,0.3005153834819794,-0.0003114674764219671,0.0008274212596006691,0.0011935232905671,1611061000000
05/14/26 20:17:46.218339840,-0.03911378234624863,0.9531084299087524,0.300035297870636,0.002730151638388634,0.0001908215926960111,0.0007095783948898315,1611062000000
05/14/26 20:17:46.219339776,-0.039365254342556,0.953723669052124,0.2999230623245239,0.00253585958853364,0.0003807839239016175,-9.306328138336539e-05,1611063000000
05/14/26 20:17:46.220339712,-0.03914569690823555,0.9538688063621521,0.3005427420139313,0.002014021622017026,0.0003129328251816332,6.243442476261407e-05,1611064000000
05/14/26 20:17:46.221339648,-0.03918473049998283,0.9529826641082764,0.3006044030189514,2.815970219671726e-05,-0.0003779646358452737,0.0004667372559197247,1611065000000
05/14/26 20:17:46.222339584,-0.03882403299212456,0.9522114992141724,0.2998785674571991,-0.0002053948846878484,-0.0007929574931040406,0.001024608267471194,1611066000000
05/14/26 20:17:46.223339520,-0.03873708471655846,0.9523872137069702,0.2993321120738983,0.0004404410137794912,-0.0003337491943966597,0.000339094374794513,1611067000000
05/14/26 20:17:46.224339456,-0.03936685994267464,0.9522455334663391,0.2985570430755615,-0.0004503658856265247,-0.0004481613868847489,6.413602386601269e-05,1611068000000
05/14/26 20:17:46.225339392,-0.03989336639642715,0.9527702927589417,0.2985564768314362,0.0001416840241290629,-0.000132679269881919,-0.0001276653783861548,1611069000000
05/14/26 20:17:46.226339328,-0.04002056270837784,0.9535467028617859,0.2986463010311127,-0.0003002984740305692,-0.0008562612347304821,-0.0001660364650888368,1611070000000
05/14/26 20:17:46.227339520,-0.03948850557208061,0.9532672166824341,0.2993124127388,-0.0004020942724309862,0.0005894353380426764,5.302000499796122e-05,1611071000000
05/14/26 20:17:46.228339456,-0.038711778819561,0.9535665512084961,0.2997440993785858,-0.0004223514697514474,0.0002496941015124321,0.0003415968967601657,1611072000000
05/14/26 20:17:46.229339648,-0.0387112945318222,0.9540109634399414,0.2997553944587708,-0.00032042182283476,-0.0006485392805188894,0.0002970138739328831,1611073000000
05/14/26 20:17:46.230339584,-0.0385248064994812,0.9534773230552673,0.299664705991745,-0.0005291834240779281,0.0004067567642778158,0.0002838600194081664,1611074000000
05/14/26 20:17:46.231339520,-0.03848140314221382,0.9512245655059814,0.2996522188186646,-0.001007594633847475,0.000198455891222693,0.0008650166564621031,1611075000000
05/14/26 20:17:46.232339456,-0.03893966600298882,0.9494707584381104,0.2990112006664276,-0.0001821106998249888,-0.0004408297245390713,0.0008886336581781507,1611076000000
05/14/26 20:17:46.233339392,-0.03905640169978142,0.9483044743537903,0.2981180548667908,0.0009234494064003229,-0.0004734971735160798,7.42158736102283e-05,1611077000000
05/14/26 20:17:46.234339584,-0.03899234533309937,0.9481170177459717,0.2981773912906647,0.0008265059441328049,0.0003452046948950738,0.0001087209675461054,1611078000000
05/14/26 20:17:46.235339520,-0.03860612213611603,0.9484453797340393,0.2983734011650085,0.0004579229571390897,0.001114475540816784,1.044099917635322e-06,1611079000000
05/14/26 20:17:46.236339456,-0.03814093023538589,0.9489863514900208,0.298694521188736,-0.001029165694490075,0.001406292780302465,0.0003319912648294121,1611080000000
05/14/26 20:17:46.237339392,-0.0382140576839447,0.9496712684631348,0.2984960973262787,-0.002210717648267746,0.001135744852945209,0.0001819486351450905,1611081000000
05/14/26 20:17:46.238339072,-0.03869503736495972,0.9503046274185181,0.2984482049942017,-0.00377470743842423,-0.0006673474563285708,0.0002743250806815922,1611082000000
05/14/26 20:17:46.239339264,-0.03824844211339951,0.9509168863296509,0.2993549108505249,-0.003235620213672519,-0.0005188160575926304,0.000285909918602556,1611083000000
05/14/26 20:17:46.240339456,-0.03859942033886909,0.9518062472343445,0.2997577488422394,-0.002644175197929144,-0.00128416926600039,0.0007542336825281382,1611084000000
05/14/26 20:17:46.241339392,-0.03914319723844528,0.9529488682746887,0.2997649013996124,-0.002365967724472284,-0.001009020954370499,0.0005234702839516103,1611085000000
05/14/26 20:17:46.242339584,-0.03946210816502571,0.9535008072853088,0.2998621463775635,-0.001706795766949654,-0.002235453110188246,0.0002321853826288134,1611086000000
05/14/26 20:17:46.243339520,-0.03944549709558487,0.9537222981452942,0.3003479242324829,-0.001981566427275538,-0.001505289459601045,0.0006304836133494973,1611087000000
05/14/26 20:17:46.244339456,-0.03916177898645401,0.9538677930831909,0.3005544245243073,-0.0006446141051128507,-0.0007437611347995698,0.0004802771145477891,1611088000000
05/14/26 20:17:46.245339392,-0.03899778798222542,0.9543672800064087,0.3010647892951965,-0.000682868470903486,-0.0007844066713005304,0.0003295802453067154,1611089000000
05/14/26 20:17:46.246339328,-0.03914106637239456,0.9545823335647583,0.3014650642871857,-0.001622304553166032,-0.0004479179915506393,0.0007616812945343554,1611090000000
05/14/26 20:17:46.247339264,-0.03852785378694534,0.9543527364730835,0.3012807071208954,-0.001974259503185749,-0.0006008385680615902,0.0006342080305330455,1611091000000
05/14/26 20:17:46.248339200,-0.03828975185751915,0.9536469578742981,0.3010539710521698,-0.002303997986018658,0.0001776869758032262,0.0002549684140831232,1611092000000
05/14/26 20:17:46.249339136,-0.03822572156786919,0.953572154045105,0.3014646172523499,-0.001335706212557852,-0.001488916343078017,0.0003917590365745127,1611093000000
05/14/26 20:17:46.250339072,-0.03765538707375526,0.9535572528839111,0.3013705909252167,-0.0002846335992217064,-0.001789239933714271,0.000649259309284389,1611094000000
05/14/26 20:17:46.251339008,-0.03761410713195801,0.9541075825691223,0.3011589348316193,-0.0004788605438079685,-0.00220499443821609,0.0005996974068693817,1611095000000
05/14/26 20:17:46.252338944,-0.03769563138484955,0.9543325901031494,0.3014793694019318,0.001083198585547507,-0.002769127255305648,0.0006918880390003324,1611096000000
05/14/26 20:17:46.253338880,-0.03807780891656876,0.954573392868042,0.302024245262146,-0.001313607324846089,-0.002787203760817647,-0.0006506751524284482,1611097000000
05/14/26 20:17:46.254338816,-0.03882104530930519,0.9544512033462524,0.3018841147422791,-0.002592876553535461,-0.00231754663400352,-0.0001660241687204689,1611098000000
05/14/26 20:17:46.255338752,-0.0387243889272213,0.9545129537582397,0.3017555177211761,-0.001866167411208153,-0.002084507141262293,-0.000172650528838858,1611099000000
05/14/26 20:17:46.256338688,-0.03888024389743805,0.955267071723938,0.3021858930587769,-0.0001844053622335196,-0.001582043594680727,-7.006322994129732e-05,1611100000000
05/14/26 20:17:46.257338624,-0.03900998085737228,0.9556366205215454,0.3030270338058472,-0.001405598595738411,-0.001453149016015232,8.356944454135373e-05,1611101000000
05/14/26 20:17:46.258338560,-0.03931964561343193,0.9558177590370178,0.303325355052948,-0.002061009407043457,-0.001995988423004746,-0.000686896441038698,1611102000000
05/14/26 20:17:46.259338496,-0.03967117518186569,0.9561339020729065,0.3026594519615173,-0.001645883079618216,-0.002012215554714203,-0.0006481356103904545,1611103000000
05/14/26 20:17:46.260338688,-0.03938837721943855,0.9556562900543213,0.3017582595348358,-0.001878321287222207,-0.002234517596662045,-0.0001711185905151069,1611104000000
05/14/26 20:17:46.261338624,-0.03895249217748642,0.9547064304351807,0.3010747730731964,-0.00274940999224782,-0.001711712451651692,6.508019578177482e-05,1611105000000
05/14/26 20:17:46.262338560,-0.03867118060588837,0.9534550905227661,0.3003557324409485,0.0004067998379468918,-0.001470449613407254,0.0004482057993300259,1611106000000
05/14/26 20:17:46.263338496,-0.03897605836391449,0.9525971412658691,0.3003721535205841,0.003150626085698605,8.420343510806561e-05,-0.0002777136396616697,1611107000000
05/14/26 20:17:46.264338432,-0.03924425318837166,0.9514667987823486,0.2999183535575867,0.003719834610819817,0.001148249488323927,-0.0003324301214888692,1611108000000
05/14/26 20:17:46.265338368,-0.03940608352422714,0.9501709342002869,0.2990733981132507,0.0009500205051153898,0.00117212301120162,1.963943941518664e-05,1611109000000
05/14/26 20:17:46.266338304,-0.03907659277319908,0.9498571753501892,0.2979378700256348,4.447076935321093e-05,-9.903858881443739e-05,-0.0001296345144510269,1611110000000
05/14/26 20:17:46.267338240,-0.03899920359253883,0.9496917128562927,0.297664076089859,-0.0003103839990217239,-4.303770401747897e-05,0.000179218128323555,1611111000000
05/14/26 20:17:46.268338176,-0.03925525397062302,0.949559211730957,0.2977873682975769,0.001207658089697361,-0.0001423310168320313,0.0001218727775267325,1611112000000
05/14/26 20:17:46.269338112,-0.03912825137376785,0.9503581523895264,0.297813206911087,0.001347129000350833,-0.0004028346156701446,-3.991888661403209e-06,1611113000000
05/14/26 20:17:46.270338048,-0.03919018059968948,0.9507378935813904,0.2981901168823242,0.0004492952139116824,-0.0008143181330524385,-0.0002583735913503915,1611114000000
05/14/26 20:17:46.271337984,-0.03966355696320534,0.9512940645217896,0.2992089986801147,-0.0009278755751438439,-0.0005548344925045967,0.0001540546072646976,1611115000000
05/14/26 20:17:46.272338176,-0.03977137431502342,0.9518932104110718,0.29991415143013,-0.001498025492765009,-0.0006014666869305074,0.0001386360236210749,1611116000000
05/14/26 20:17:46.273338112,-0.03951596096158028,0.9526829719543457,0.2996193766593933,-0.0006783702410757542,-0.001081243040971458,0.0003607788821682334,1611117000000
05/14/26 20:17:46.274338048,-0.0388944111764431,0.9540755152702332,0.2996375858783722,0.0008034228812903166,-0.001796918222680688,0.0002908929018303752,1611118000000
05/14/26 20:17:46.275338240,-0.03864873945713043,0.9545094966888428,0.300565242767334,0.001606837962754071,-0.002192934276536107,-0.0003054030821658671,1611119000000
05/14/26 20:17:46.276338176,-0.03840511664748192,0.9543381929397583,0.3009728491306305,0.004006939940154552,-0.002516942331567407,-0.0001192678028019145,1611120000000
05/14/26 20:17:46.277338112,-0.03844653069972992,0.9540218114852905,0.3007925152778625,0.002032718621194363,-0.001895844121463597,-0.0001700164284557104,1611121000000
05/14/26 20:17:46.278338048,-0.03827042877674103,0.9541282057762146,0.3001905381679535,0.001903839758597314,-0.001630671322345734,-0.0001852014393080026,1611122000000
05/14/26 20:17:46.279337984,-0.03833027929067612,0.9542480707168579,0.2993030250072479,-0.0006694589974358678,-0.0005291679408401251,-0.0004050751158501953,1611123000000
05/14/26 20:17:46.280337664,-0.03815211728215218,0.954275906085968,0.2990878522396088,-0.004201790783554316,0.0003215105971321464,-0.001025091856718063,1611124000000
05/14/26 20:17:46.281337856,-0.03801779448986053,0.9538167119026184,0.299129843711853,-0.002485104836523533,0.0002854023477993906,-3.218150231987238e-05,1611125000000
05/14/26 20:17:46.282337792,-0.03817593678832054,0.9523149132728577,0.2990545034408569,0.0004730054643005133,0.0005041357944719493,0.001121306326240301,1611126000000
05/14/26 20:17:46.283337728,-0.03877221420407295,0.951677143573761,0.2984848022460938,0.001289792591705918,0.0008016246720217168,1.203012652695179e-05,1611127000000
05/14/26 20:17:46.284337920,-0.03928637132048607,0.9513370394706726,0.2980746030807495,0.001714118174277246,0.0004056718607898802,-0.0008348317351192236,1611128000000
05/14/26 20:17:46.285337856,-0.03922658041119576,0.9508846998214722,0.2981619238853455,0.0004334944533184171,-4.408287350088358e-05,-0.0006839125417172909,1611129000000
05/14/26 20:17:46.286337792,-0.0393974669277668,0.9510515332221985,0.2986459136009216,-0.001625641132704914,0.0004415205912664533,-0.0007535656332038343,1611130000000
05/14/26 20:17:46.287337728,-0.03962351381778717,0.9519219994544983,0.2991341352462769,-0.003739139065146446,0.0007967056008055806,5.303078796714544e-05,1611131000000
05/14/26 20:17:46.288337664,-0.03957397863268852,0.9528797268867493,0.2997119426727295,-0.003438930958509445,-0.0005172766977921128,-0.0001055981265380979,1611132000000
05/14/26 20:17:46.289337600,-0.03927994892001152,0.9537620544433594,0.2997536659240723,-0.002432537032291293,-0.0007084315293468535,0.0001929172722157091,1611133000000
05/14/26 20:17:46.290337536,-0.03893741965293884,0.9537885785102844,0.2994838356971741,-0.003132994519546628,-0.002840898232534528,4.628639726433903e-05,1611134000000
05/14/26 20:17:46.291337472,-0.03931571915745735,0.9541633725166321,0.3001589179039001,-0.0007497894112020731,-0.001974673941731453,0.0003388877375982702,1611135000000
05/14/26 20:17:46.292337408,-0.03968777507543564,0.9545322060585022,0.3005994856357574,-0.001668522134423256,-0.0002530411584302783,0.0001878144539659843,1611136000000
05/14/26 20:17:46.293337600,-0.03931562602519989,0.9536955952644348,0.3006149530410767,-0.0009410289349034429,3.742642002180219e-05,-8.428732689935714e-05,1611137000000
05/14/26 20:17:46.294337536,-0.03839010745286942,0.9529409408569336,0.3006164133548737,-0.001457132631912827,-0.001277502626180649,0.0007790964446030557,1611138000000
05/14/26 20:17:46.295337728,-0.03835349157452583,0.9525717496871948,0.3002491295337677,-0.0009969047969207168,-0.001602392178028822,0.001562498044222593,1611139000000
05/14/26 20:17:46.296337664,-0.03834560886025429,0.9519274234771729,0.3000698387622833,0.0001629971666261554,-0.0009955058339983225,0.001398280845023692,1611140000000
05/14/26 20:17:46.297337856,-0.03862469270825386,0.9516792297363281,0.2994726896286011,0.0006747377919964492,-5.441141547635198e-05,8.632580284029245e-05,1611141000000
05/14/26 20:17:46.298338048,-0.03934310749173164,0.9509713053703308,0.2990590035915375,-0.0004912029835395515,0.0001713461097097024,-0.0004616347723640501,1611142000000
05/14/26 20:17:46.299337984,-0.03942376375198364,0.9503381252288818,0.2990527749061584,-0.001831166446208954,1.836699084378779e-06,9.962188778445125e-05,1611143000000
05/14/26 20:17:46.300337920,-0.0395343005657196,0.9504621028900146,0.2989573776721954,-0.002971972338855267,-0.0009591843700036407,0.0001274891692446545,1611144000000
05/14/26 20:17:46.301337856,-0.03900159522891045,0.9511436223983765,0.2992064356803894,-0.003129298100247979,-0.0007203433196991682,-0.000444718636572361,1611145000000
05/14/26 20:17:46.302337792,-0.03887359797954559,0.9513048529624939,0.300096869468689,-0.00386445177718997,-0.002037445548921824,-0.0003417370317038149,1611146000000
05/14/26 20:17:46.303337984,-0.03875041753053665,0.9518940448760986,0.3008630275726318,-0.005194044671952724,-0.002244161441922188,0.0003830772184301168,1611147000000
05/14/26 20:17:46.304338176,-0.03862190246582031,0.9521307349205017,0.3010490536689758,-0.004139411263167858,-0.002418368123471737,0.001126763760112226,1611148000000
05/14/26 20:17:46.305338112,-0.03877788409590721,0.9523756504058838,0.3009085953235626,-0.003652847837656736,-0.002218149369582534,0.0008467037114314735,1611149000000
05/14/26 20:17:46.306338304,-0.03936820104718208,0.9529942870140076,0.3010604977607727,-0.0011966940946877,-0.0005572304362431169,0.0007629537140019238,1611150000000
05/14/26 20:17:46.307338240,-0.03941232338547707,0.9537889361381531,0.3013743758201599,0.0009064143523573875,0.0001921140355989337,0.0007284238818101585,1611151000000
05/14/26 20:17:46.308338176,-0.03933020681142807,0.9533287286758423,0.3015448749065399,0.0007232746575027704,-8.974765660241246e-05,0.0007279536221176386,1611152000000
05/14/26 20:17:46.309338112,-0.03931533172726631,0.9536771774291992,0.3013996779918671,-0.002907986287027597,-0.0008638806757517159,0.0001754217082634568,1611153000000
05/14/26 20:17:46.310338048,-0.03931377828121185,0.9549663662910461,0.3008975088596344,-0.004611392039805651,-0.001739539671689272,0.0007383821066468954,1611154000000
05/14/26 20:17:46.311338240,-0.03884301707148552,0.9560201168060303,0.3009549379348755,-0.003290683729574084,-0.001021042698994279,0.0009744323906488717,1611155000000
05/14/26 20:17:46.312338176,-0.03882187604904175,0.9554436802864075,0.3009699285030365,-0.001227832399308681,-0.000151615182403475,0.0004407123778946698,1611156000000
05/14/26 20:17:46.313338112,-0.03853761032223701,0.9550245404243469,0.3009723722934723,-0.0003878900315612555,5.874522321391851e-05,0.0001937367487698793,1611157000000
05/14/26 20:17:46.314338304,-0.0382833369076252,0.9543681144714355,0.3013498187065125,0.0004112008609808981,0.0003273139009252191,0.000136137823574245,1611158000000
05/14/26 20:17:46.315338496,-0.03869239613413811,0.9543939232826233,0.3013529181480408,0.0010896110907197,-0.001354196690954268,-0.0002160113945137709,1611159000000
05/14/26 20:17:46.316338432,-0.0391632467508316,0.9546838402748108,0.3009828627109528,-0.0001405265647917986,-0.001060553826391697,-0.0004108127031940967,1611160000000
05/14/26 20:17:46.317338368,-0.03927724808454514,0.9549332857131958,0.3004271388053894,-0.0009122035698965192,-0.001325533492490649,0.0003506705688778311,1611161000000
05/14/26 20:17:46.318338304,-0.03920850157737732,0.9549956321716309,0.3005684614181519,-0.001214584335684776,-0.0001088036224246025,0.001106036244891584,1611162000000
05/14/26 20:17:46.319338240,-0.03909918293356895,0.9551045894622803,0.300695389509201,-0.0006111991824582219,-0.000510320533066988,0.0007011175621300936,1611163000000
05/14/26 20:17:46.320338176,-0.03916756063699722,0.9548482298851013,0.3003596365451813,0.00183753517922014,-0.0007229597540572286,0.0002398089854978025,1611164000000
05/14/26 20:17:46.321338112,-0.03955569863319397,0.9544147849082947,0.3003742694854736,0.0009220085921697319,-0.0009987113298848271,0.001070598140358925,1611165000000
05/14/26 20:17:46.322338048,-0.03955549746751785,0.9544080495834351,0.3006541728973389,-0.0005691209225915372,-0.001879132236354053,0.00139383994974196,1611166000000
05/14/26 20:17:46.323337984,-0.03983904421329498,0.9541294574737549,0.3003545701503754,-0.002559952903538942,-0.002666303189471364,0.001139841042459011,1611167000000
05/14/26 20:17:46.324337920,-0.0394384078681469,0.954617977142334,0.3001841008663177,-0.001526574487797916,-0.002411761321127415,0.0004904337110929191,1611168000000
05/14/26 20:17:46.325338112,-0.03878938034176826,0.9541773200035095,0.2996753454208374,-0.0001033646985888481,-0.0027028804179281,0.000328577239997685,1611169000000
05/14/26 20:17:46.326338048,-0.03873556107282639,0.9525855779647827,0.2986322939395905,0.00256331660784781,-0.002307115122675896,0.0009705045376904309,1611170000000
05/14/26 20:17:46.327338240,-0.03919119387865067,0.9510994553565979,0.2981091439723969,0.004827703814953566,-0.001154122641310096,0.001115594524890184,1611171000000
05/14/26 20:17:46.328338176,-0.03958579152822495,0.9502810835838318,0.2974334061145782,0.003175258403643966,0.0006347632734104991,0.0009323564590886235,1611172000000
05/14/26 20:17:46.329338112,-0.03931399434804916,0.9498036503791809,0.2964343428611755,0.001259142765775323,0.0009387729223817587,0.0006675084587186575,1611173000000
05/14/26 20:17:46.330338048,-0.03934099897742271,0.9489455819129944,0.2958270609378815,-0.0004822100745514035,0.0003101510228589177,0.000606454792432487,1611174000000
05/14/26 20:17:46.331337984,-0.03953539207577705,0.9481802582740784,0.2955941557884216,-0.001263901125639677,0.0006248357240110636,0.0001276505354326218,1611175000000
05/14/26 20:17:46.332337920,-0.03948919475078583,0.9479921460151672,0.2959083318710327,0.0005169694777578115,1.55098969116807e-05,-3.095323336310685e-06,1611176000000
05/14/26 20:17:46.333337856,-0.03957150876522064,0.9484115839004517,0.2964422404766083,0.002689054934307933,-1.488161979068536e-05,0.0003034673864021897,1611177000000
05/14/26 20:17:46.334337536,-0.03950069099664688,0.9480485916137695,0.2965710759162903,0.00216427817940712,-0.0007126368000172079,0.0001572091423440725,1611178000000
05/14/26 20:17:46.335337728,-0.03957481309771538,0.9483267664909363,0.2966034412384033,5.69433905184269e-05,-0.000749219034332782,2.388504799455404e-05,1611179000000
05/14/26 20:17:46.336337920,-0.03948644548654556,0.9487651586532593,0.2976302802562714,0.0006025831680744886,-0.0007655733497813344,0.0005637432914227247,1611180000000
05/14/26 20:17:46.337337856,-0.03955462202429771,0.9494320750236511,0.2979687750339508,-0.0009770137257874012,-0.001127735478803515,0.0008224655757658184,1611181000000
05/14/26 20:17:46.338337792,-0.03947923332452774,0.9509826302528381,0.2981346249580383,-0.001012294786050916,-0.0009917770512402058,0.0008733915165066719,1611182000000
05/14/26 20:17:46.339337728,-0.03936748579144478,0.9520983695983887,0.2983569204807281,-0.00114239496178925,-0.0008437960641458631,-0.0002699086908251047,1611183000000
05/14/26 20:17:46.340337664,-0.03886803612112999,0.9532884359359741,0.2988664209842682,-0.0008374728495255113,-0.0006819652626290917,-8.677251753397286e-05,1611184000000
05/14/26 20:17:46.341337600,-0.03864632546901703,0.9537593126296997,0.2995446920394897,-0.001114434329792857,-5.150068318471313e-05,-0.0001553665933897719,1611185000000
05/14/26 20:17:46.342337536,-0.03849692642688751,0.9543358087539673,0.2998908758163452,-0.001995236147195101,-0.000717812217772007,0.0007604905404150486,1611186000000
05/14/26 20:17:46.343337472,-0.03837516903877258,0.954474151134491,0.2998805344104767,0.0004800283350050449,-0.0001934937899932265,0.001429425436072052,1611187000000
05/14/26 20:17:46.344337408,-0.03853698819875717,0.9542341828346252,0.2996033132076263,-0.0007669059559702873,0.0002743505756370723,0.0007948125130496919,1611188000000
05/14/26 20:17:46.345337344,-0.03857105225324631,0.9541776776313782,0.2999998927116394,-0.0002447797451168299,0.0003756739315576851,-5.751225398853421e-05,1611189000000
05/14/26 20:17:46.346337536,-0.03876020759344101,0.9548093676567078,0.3001887202262878,-0.00210596201941371,7.408091914840043e-05,9.739449888002127e-05,1611190000000
05/14/26 20:17:46.347337472,-0.03899448364973068,0.9550542235374451,0.3002365231513977,-0.00197441061027348,-0.00046042978647165,0.0005923551507294178,1611191000000
05/14/26 20:17:46.348337408,-0.03896054998040199,0.9550247192382812,0.3001534342765808,-0.002535159233957529,0.0002256908628623933,0.0003666405973490328,1611192000000
05/14/26 20:17:46.349337344,-0.03894883021712303,0.9549254179000854,0.3005028665065765,-0.003484912682324648,0.001310132211074233,0.0003165320376865566,1611193000000
05/14/26 20:17:46.350337280,-0.03922403603792191,0.9544382691383362,0.3009601831436157,-0.003945011645555496,0.002027410082519054,0.0004144159320276231,1611194000000
05/14/26 20:17:46.351337216,-0.03947816789150238,0.9545068144798279,0.300793468952179,-0.005337059497833252,0.001516453456133604,0.001024822006002069,1611195000000
05/14/26 20:17:46.352337152,-0.03944750502705574,0.9543347358703613,0.3006612062454224,-0.00429436331614852,0.0002337887417525053,0.0004726920742541552,1611196000000
05/14/26 20:17:46.353337088,-0.03896982222795486,0.954292893409729,0.3010881245136261,-0.002882563741877675,-0.001125461654737592,-0.000129092310089618,1611197000000
05/14/26 20:17:46.354337024,-0.03802201524376869,0.9543757438659668,0.3009996116161346,-0.002407864667475224,-0.001907008467242122,0.0003086343349423259,1611198000000
05/14/26 20:17:46.355336960,-0.03779494017362595,0.9547643065452576,0.3006097972393036,-0.001709402189590037,-0.0009346827864646912,0.0005224903579801321,1611199000000
05/14/26 20:17:46.356337152,-0.03810990229249001,0.9547668099403381,0.3004273772239685,-0.0002763922093436122,-0.0004753466928377748,-0.0004744140896946192,1611200000000
05/14/26 20:17:46.357337344,-0.03865068405866623,0.9543059468269348,0.3004803359508514,-2.855379716493189e-05,-0.0004975433112122118,-0.0002546025498304516,1611201000000
05/14/26 20:17:46.358337536,-0.03887717425823212,0.9536417722702026,0.3006808459758759,-0.0004134037881158292,-0.001438720151782036,0.0002660721947904676,1611202000000
05/14/26 20:17:46.359337472,-0.03884012624621391,0.9531115293502808,0.3004519641399384,-0.0002592871314845979,-0.001199712743982673,0.0006230901344679296,1611203000000
05/14/26 20:17:46.360337408,-0.03873591125011444,0.953260600566864,0.3001154959201813,-0.0005704107461497188,-0.0009042152087204158,0.001402301480993629,1611204000000
05/14/26 20:17:46.361337344,-0.03870677575469017,0.9535762667655945,0.2998481094837189,-0.001238012220710516,-0.0002431620960123837,0.001016490045003593,1611205000000
05/14/26 20:17:46.362337280,-0.03888971731066704,0.9529130458831787,0.2999729216098785,0.0002008796436712146,-0.0006714109913446009,9.868259076029062e-05,1611206000000
05/14/26 20:17:46.363337216,-0.03894126042723656,0.9525684714317322,0.3000945746898651,0.00147632451262325,-0.0007684798911213875,0.0002151289663743228,1611207000000
05/14/26 20:17:46.364337152,-0.03867341950535774,0.95303875207901,0.3001205623149872,0.0009929405059665442,-0.00148569350130856,0.0006007102783769369,1611208000000
05/14/26 20:17:46.365337088,-0.03851444646716118,0.9534282088279724,0.2997569143772125,-0.001099092187359929,-0.002360461745411158,1.669058110564947e-05,1611209000000
05/14/26 20:17:46.366337024,-0.03847769275307655,0.953428328037262,0.3001307547092438,-0.0006920086452737451,-0.002104070968925953,-0.0001322039606748149,1611210000000
05/14/26 20:17:46.367337216,-0.0388399139046669,0.9534288048744202,0.3003184497356415,-0.0005944106378592551,-0.00250734412111342,-4.771448584506288e-05,1611211000000
05/14/26 20:17:46.368337152,-0.03882858157157898,0.9530567526817322,0.30036461353302,-0.0004588539595715702,-0.001437388593330979,0.0005451262695714831,1611212000000
05/14/26 20:17:46.369337344,-0.03835893794894218,0.9532429575920105,0.3000939786434174,-0.001359343994408846,-0.00059807940851897,0.0002305320231243968,1611213000000
05/14/26 20:17:46.370337280,-0.03918080031871796,0.9528288841247559,0.2999432981014252,-6.655324250459671e-05,-0.001325084827840328,0.0001432411518180743,1611214000000
05/14/26 20:17:46.371337216,-0.039569441229105,0.9526380896568298,0.299442857503891,-0.002311868127435446,-0.001716578146442771,0.0004862213390879333,1611215000000
05/14/26 20:17:46.372337152,-0.03957213461399078,0.9520348310470581,0.2989544868469238,-0.001109009492211044,-0.001948324730619788,-1.73014122992754e-05,1611216000000
05/14/26 20:17:46.373337088,-0.0394810251891613,0.9519785046577454,0.2987422049045563,-0.002217756351456046,-0.002231838181614876,-1.221654838445829e-05,1611217000000
05/14/26 20:17:46.374337024,-0.03908955305814743,0.9518729448318481,0.2992446422576904,-0.002021317603066564,-0.002180534182116389,0.0002134781680069864,1611218000000
05/14/26 20:17:46.375336960,-0.03890620917081833,0.9516664743423462,0.2991787493228912,-0.001042733201757073,-0.0006630212301388383,0.0001463158405385911,1611219000000
05/14/26 20:17:46.376336896,-0.03913914784789085,0.9518948197364807,0.2988865375518799,0.003723488422110677,0.0002837112988345325,0.0001026829413603991,1611220000000
05/14/26 20:17:46.377337088,-0.03881722688674927,0.9522324204444885,0.299182116985321,0.005358560476452112,0.000748766353353858,-2.188622602261603e-05,1611221000000
05/14/26 20:17:46.378337280,-0.03900977596640587,0.953236997127533,0.2990688681602478,0.004822485148906708,0.0002750110579654574,0.0005361087387427688,1611222000000
05/14/26 20:17:46.379337216,-0.0396183580160141,0.9531980752944946,0.2988622784614563,0.002732126042246819,0.0004940077196806669,0.001029323320835829,1611223000000
05/14/26 20:17:46.380337152,-0.03921341896057129,0.9530914425849915,0.2991779744625092,0.0003584916703402996,0.0009027295163832605,0.001040138304233551,1611224000000
05/14/26 20:17:46.381337088,-0.0387418158352375,0.9531597495079041,0.2988821566104889,-0.0009330443572252989,-0.0009650681749917567,0.000582922191824764,1611225000000
05/14/26 20:17:46.382337024,-0.03871966153383255,0.9528104066848755,0.2985358238220215,-0.0007785480702295899,-0.0006071461830288172,0.0005821685190312564,1611226000000
05/14/26 20:17:46.383336960,-0.03898803517222404,0.9529122710227966,0.2984538972377777,-0.000881293264683336,-0.0007403976051136851,0.0004649126203730702,1611227000000
05/14/26 20:17:46.384336896,-0.03923885524272919,0.9529381990432739,0.2988966107368469,-0.001720948377624154,-0.0006438427371904254,0.0007915201713331044,1611228000000
05/14/26 20:17:46.385336832,-0.03874461352825165,0.9524776339530945,0.2995541393756866,0.001104017719626427,-0.0008590308134444058,0.001432468998245895,1611229000000
05/14/26 20:17:46.386336768,-0.03816190361976624,0.9525468349456787,0.2992470264434814,0.0002804555115289986,-0.001367931487038732,0.001256264746189117,1611230000000
05/14/26 20:17:46.387336704,-0.03858193010091782,0.9527467489242554,0.298250287771225,-0.001422988018020988,-0.002187690231949091,0.0001833331771194935,1611231000000
05/14/26 20:17:46.388336640,-0.03896557912230492,0.9524263739585876,0.2982912063598633,-0.0001927021658048034,-0.0008972495561465621,-0.0002059937105514109,1611232000000
05/14/26 20:17:46.389336832,-0.03877952322363853,0.9522589445114136,0.2983954250812531,0.0003541468176990747,0.001037565758451819,0.0003896181005984545,1611233000000
05/14/26 20:17:46.390337024,-0.03892098739743233,0.9518486261367798,0.2983283400535583,0.00175414711702615,0.0006959540769457817,0.0002947699395008385,1611234000000
05/14/26 20:17:46.391337216,-0.03914045542478561,0.9514716267585754,0.2982212603092194,0.001852306071668863,-0.0006519334856420755,0.0006233851891011,1611235000000
05/14/26 20:17:46.392337152,-0.0394761934876442,0.95082688331604,0.2978280782699585,0.001059515518136322,0.0005293884314596653,0.0007070582360029221,1611236000000
05/14/26 20:17:46.393337088,-0.03974512964487076,0.9504837989807129,0.2970870137214661,-0.001920857350341976,0.001163736684247851,0.0002796438930090517,1611237000000
05/14/26 20:17:46.394337024,-0.03934306651353836,0.9499374628067017,0.297369509935379,-0.002301734639331698,3.786373417824507e-05,0.0008697443408891559,1611238000000
05/14/26 20:17:46.395336960,-0.03905582427978516,0.9498946666717529,0.2982704341411591,-0.002160073956474662,0.0006933095282875001,0.001124076195992529,1611239000000
05/14/26 20:17:46.396336896,-0.03888631612062454,0.9502521157264709,0.299043208360672,-0.003274931339547038,0.0006271711317822337,0.001313547953031957,1611240000000
05/14/26 20:17:46.397336832,-0.03893856331706047,0.9503380656242371,0.2992311716079712,-0.002277047373354435,-0.0007976494962349534,0.0007676402456127107,1611241000000
05/14/26 20:17:46.398336512,-0.03858210891485214,0.9505465030670166,0.2993654906749725,-0.0007660408737137914,-0.00183736183680594,5.216134013608098e-05,1611242000000
05/14/26 20:17:46.399336448,-0.03896128013730049,0.9506024718284607,0.2989375591278076,-0.001226449967361987,-0.00253970711492002,-0.0004582671681419015,1611243000000
05/14/26 20:17:46.400336384,-0.0392410010099411,0.9508956074714661,0.2991120219230652,-0.001200844533741474,-0.001325199147686362,-0.0007025953382253647,1611244000000
05/14/26 20:17:46.401336320,-0.0389377735555172,0.9513311982154846,0.2992415726184845,-0.002700920216739178,-0.0008038442465476692,-0.0002929829643107951,1611245000000
05/14/26 20:17:46.402336512,-0.03849281370639801,0.9511566758155823,0.299178421497345,-0.003041537012904882,-0.001139542437158525,0.0005018824595026672,1611246000000
05/14/26 20:17:46.403336448,-0.03828982636332512,0.9513987302780151,0.2996218502521515,-0.003613500157371163,-0.001450846204534173,-2.990709617733955e-06,1611247000000
05/14/26 20:17:46.404336384,-0.03898181021213531,0.9522912502288818,0.3000092506408691,-0.003181707113981247,-0.001648611389100552,-0.0002440375683363527,1611248000000
05/14/26 20:17:46.405336320,-0.03924177214503288,0.9535192251205444,0.2999172210693359,-0.002597844693809748,-0.000174915767274797,0.0001596187066752464,1611249000000
05/14/26 20:17:46.406336256,-0.03874485567212105,0.9539056420326233,0.3000763654708862,-0.002340118400752544,-0.0009794423822313547,2.944309380836785e-05,1611250000000
05/14/26 20:17:46.407336192,-0.03889641165733337,0.9545616507530212,0.301320344209671,-0.0006490894593298435,-0.0007168946322053671,-0.0001266706094611436,1611251000000
05/14/26 20:17:46.408336128,-0.03902625292539597,0.9546269178390503,0.3015303611755371,0.0009376425296068192,-0.0004290398501325399,0.0001726768387015909,1611252000000
05/14/26 20:17:46.409336320,-0.03896541148424149,0.9540862441062927,0.3013936281204224,0.0004199474933557212,-0.0001304565230384469,0.0003706270945258439,1611253000000
05/14/26 20:17:46.410336768,-0.0388576053082943,0.9542348980903625,0.3011742532253265,0.0003975408326368779,-0.0003063381882384419,0.0001846050145104527,1611254000000
05/14/26 20:17:46.411336704,-0.03883302211761475,0.9544574618339539,0.3010299205780029,0.0007262054132297635,-0.001514295232482255,-0.0009080126183107495,1611255000000
05/14/26 20:17:46.412336640,-0.03863776847720146,0.9551592469215393,0.3011749982833862,-0.00082985102199018,-0.001558940624818206,-0.0008152926457114518,1611256000000
05/14/26 20:17:46.413336576,-0.03849448636174202,0.9552355408668518,0.3014878332614899,-0.001788598485291004,-0.001225309330038726,-0.001021188916638494,1611257000000
05/14/26 20:17:46.414336512,-0.03855182603001595,0.9548798203468323,0.3019384443759918,-0.002252829726785421,-0.0006801323615945876,-0.0002627038629725575,1611258000000
05/14/26 20:17:46.415336448,-0.0386565700173378,0.9546105861663818,0.3016764223575592,-0.002379131037741899,0.000155998335685581,-0.0006615647580474615,1611259000000
05/14/26 20:17:46.416336384,-0.03849858418107033,0.954640805721283,0.3014244735240936,-0.003570724977180362,-0.001154610421508551,-0.0002839879307430238,1611260000000
05/14/26 20:17:46.417336320,-0.03837014734745026,0.9545570015907288,0.3013625144958496,-0.003168584778904915,-0.002062042476609349,0.0007272782968357205,1611261000000
05/14/26 20:17:46.418336256,-0.03825026378035545,0.9539834856987,0.3008867800235748,-0.00399372773244977,-0.001920736394822598,5.862186662852764e-05,1611262000000
05/14/26 20:17:46.419336192,-0.03859260305762291,0.9539356231689453,0.300032913684845,-0.003619137918576598,-0.001291143940761685,-0.0008022341062314808,1611263000000
05/14/26 20:17:46.420336128,-0.03858466446399689,0.9540119767189026,0.2997336685657501,-0.002011838834732771,-0.001479172497056425,0.0001391379628330469,1611264000000
05/14/26 20:17:46.421336320,-0.03877116367220879,0.9539378881454468,0.2997578978538513,2.794899046421051e-06,-0.001756392768584192,0.0003550047404132783,1611265000000
05/14/26 20:17:46.422336512,-0.03899930417537689,0.9539222717285156,0.3001354038715363,0.002237115055322647,-0.002072306582704186,0.0006258974317461252,1611266000000
05/14/26 20:17:46.423336448,-0.03952023759484291,0.953363299369812,0.3002326488494873,0.001278923009522259,-0.002148070139810443,0.0008187611238099635,1611267000000
05/14/26 20:17:46.424336640,-0.03983010351657867,0.9525833129882812,0.3009052872657776,-0.0005751826101914048,-0.0004261439898982644,0.0004144791455473751,1611268000000
05/14/26 20:17:46.425336576,-0.03944452852010727,0.9527677297592163,0.3005978763103485,-0.001485490705817938,0.0001031605643220246,-2.606760244816542e-05,1611269000000
05/14/26 20:17:46.426336512,-0.03898505866527557,0.9531772136688232,0.2995031476020813,0.001784187275916338,0.001030276762321591,7.25471691112034e-05,1611270000000
05/14/26 20:17:46.427336448,-0.03915133327245712,0.9525336027145386,0.2995201051235199,0.003722545690834522,0.002066887216642499,8.486650040140375e-05,1611271000000
05/14/26 20:17:46.428336384,-0.03946623578667641,0.9525635242462158,0.2997105717658997,0.002321323379874229,0.002206910867244005,9.677412890596315e-05,1611272000000
05/14/26 20:17:46.429336320,-0.03963175043463707,0.9527547359466553,0.2999393939971924,0.001764727756381035,0.001325253862887621,0.0005713792634196579,1611273000000
05/14/26 20:17:46.430336256,-0.03920751810073853,0.952802836894989,0.3002687692642212,0.003597837872803211,0.0004098291392438114,0.0002106587053276598,1611274000000
05/14/26 20:17:46.431336192,-0.03873169049620628,0.953180730342865,0.3002535402774811,0.001606113743036985,0.000901027990039438,0.0008378290222026408,1611275000000
05/14/26 20:17:46.432336384,-0.0388939268887043,0.9539189338684082,0.3002517819404602,0.000194831402041018,-0.0001495641772635281,0.001456612488254905,1611276000000
05/14/26 20:17:46.433336320,-0.03903196007013321,0.9542816877365112,0.2996032536029816,-0.0002648597583174706,0.0002901299449149519,0.001138831139542162,1611277000000
05/14/26 20:17:46.434336256,-0.03906451538205147,0.9541837573051453,0.2993568778038025,0.0007880687480792403,-0.0001802205224521458,0.001514852745458484,1611278000000
05/14/26 20:17:46.435336192,-0.03869938850402832,0.9534232020378113,0.2994810938835144,0.001026319339871407,-0.0008649374940432608,0.001142682041972876,1611279000000
05/14/26 20:17:46.436336128,-0.03851889446377754,0.9530582427978516,0.2995097935199738,0.0001503002713434398,-0.001025862875394523,0.0008311646524816751,1611280000000
05/14/26 20:17:46.437336064,-0.03856991231441498,0.9527825713157654,0.2989595234394073,-0.0007594478083774447,-0.0003777894889935851,0.001102936919778585,1611281000000
05/14/26 20:17:46.438336000,-0.03821267932653427,0.9529008269309998,0.2991011440753937,-0.0024866231251508,-0.0005678993184119463,0.0002592431264929473,1611282000000
05/14/26 20:17:46.439335936,-0.03822087123990059,0.9533928632736206,0.2994154393672943,-0.001735341385938227,-0.0005030464963056147,5.164575122762471e-05,1611283000000
05/14/26 20:17:46.440335872,-0.03869100660085678,0.9536998867988586,0.2992173731327057,-0.0001508929999545217,-0.0001396218140143901,-0.0002408346481388435,1611284000000
05/14/26 20:17:46.441336064,-0.0392683632671833,0.9531217217445374,0.2993583977222443,0.001876843045465648,-0.0006390523631125689,0.0002595821279101074,1611285000000
05/14/26 20:17:46.442336000,-0.0390356034040451,0.9523321390151978,0.2992045879364014,0.004899204708635807,-0.0007643645512871444,0.000247610907536,1611286000000
05/14/26 20:17:46.443336192,-0.03860900551080704,0.9524182677268982,0.2988837361335754,0.002956707496196032,-0.0002085393643938005,0.0006104626227170229,1611287000000
05/14/26 20:17:46.444336128,-0.03860154375433922,0.9521636366844177,0.2985305786132812,0.0003891773521900177,0.001090842997655272,0.0003614917513914406,1611288000000
05/14/26 20:17:46.445336320,-0.03887087851762772,0.9516408443450928,0.2990063726902008,-0.00186887220479548,0.0001308509963564575,-3.96175601053983e-05,1611289000000
05/14/26 20:17:46.446336256,-0.03903241828083992,0.9514224529266357,0.2986603081226349,-0.002407714026048779,5.128560587763786e-06,9.365001460537314e-05,1611290000000
05/14/26 20:17:46.447336192,-0.03906907141208649,0.9513785243034363,0.2989477813243866,-0.0006822707364335656,9.662732918513939e-05,0.0004625862638931721,1611291000000
05/14/26 20:17:46.448336128,-0.03935525566339493,0.9518318772315979,0.2989256978034973,-0.001073429943062365,2.081034472212195e-05,0.0006736640352755785,1611292000000
05/14/26 20:17:46.449336064,-0.03942371532320976,0.9519400596618652,0.2991062700748444,-0.000485668599139899,0.0007141124806366861,0.000951179361436516,1611293000000
05/14/26 20:17:46.450336000,-0.03888272121548653,0.9523319005966187,0.2994221150875092,-0.001037445850670338,0.001003222423605621,0.001023055869154632,1611294000000
05/14/26 20:17:46.451335936,-0.03856608644127846,0.9526098370552063,0.2994970381259918,-0.003248078050091863,0.00130859378259629,0.001521424623206258,1611295000000
05/14/26 20:17:46.452336128,-0.03849105536937714,0.9527658224105835,0.2988685667514801,-0.00214383821003139,0.0001949518918991089,0.001399713684804738,1611296000000
05/14/26 20:17:46.453336064,-0.0387498177587986,0.9531742334365845,0.2988078892230988,-0.001172490883618593,-0.0004377351142466068,0.001365882810205221,1611297000000
05/14/26 20:17:46.454336000,-0.03881213068962097,0.9534614086151123,0.2995322942733765,-0.001154778525233269,-0.0006016257684677839,0.0007800032035447657,1611298000000
05/14/26 20:17:46.455336192,-0.03873541951179504,0.9533385038375854,0.2995232939720154,-0.000815986015368253,0.0001726926420815289,0.0008643632172606885,1611299000000
05/14/26 20:17:46.456336128,-0.03843362256884575,0.9532172083854675,0.2997990846633911,-0.001911230385303497,0.001183553598821163,0.0008915485232137144,1611300000000
05/14/26 20:17:46.457336064,-0.03873210027813911,0.952727735042572,0.3003299832344055,-0.003812480717897415,0.0008609213400632143,0.0006751019391231239,1611301000000
05/14/26 20:17:46.458336000,-0.03898921608924866,0.9524280428886414,0.3004585802555084,-0.001708728494122624,0.0009011670481413603,0.00118971592746675,1611302000000
05/14/26 20:17:46.459335936,-0.0384969487786293,0.9518916606903076,0.3005797863006592,-0.001051690662279725,0.00112228246871382,0.001659695524722338,1611303000000
05/14/26 20:17:46.460335872,-0.03874918073415756,0.9517657160758972,0.3006137311458588,-8.261826587840915e-05,-0.000576890422962606,0.00107081513851881,1611304000000
05/14/26 20:17:46.461335808,-0.03853102400898933,0.9518235921859741,0.300528883934021,-0.001124335452914238,-0.0005258492892608047,0.0008200109004974365,1611305000000
05/14/26 20:17:46.462335744,-0.03875578567385674,0.9523018002510071,0.3003216981887817,-0.0003349334001541138,-0.001440595602616668,0.0007534626638516784,1611306000000
05/14/26 20:17:46.463335680,-0.03918182849884033,0.9524207711219788,0.30055171251297,-0.001774703501723707,-0.001412672689184546,0.0005150216165930033,1611307000000
05/14/26 20:17:46.464335872,-0.03853929042816162,0.9530884027481079,0.3003242611885071,-0.001206456101499498,-0.001409190590493381,0.001030712970532477,1611308000000
05/14/26 20:17:46.465336064,-0.03838565200567245,0.9536165595054626,0.300357460975647,-0.0003750976175069809,-0.000600330822635442,0.0009146074298769236,1611309000000
05/14/26 20:17:46.466336256,-0.03853583708405495,0.9537453055381775,0.3001821637153625,-0.0002963384031318128,-0.0004048636765219271,0.000770975835621357,1611310000000
05/14/26 20:17:46.467336192,-0.03912792354822159,0.95331871509552,0.3008850812911987,-0.002015067264437675,-0.0008160193683579564,0.0006361678242683411,1611311000000
05/14/26 20:17:46.468336384,-0.03927029669284821,0.953123152256012,0.3009636700153351,-0.003710800781846046,-0.001730774994939566,-8.224154589697719e-05,1611312000000
05/14/26 20:17:46.469336320,-0.0394882969558239,0.9530779123306274,0.300798088312149,-0.003780573606491089,-0.001479418366216123,0.0006666590925306082,1611313000000
05/14/26 20:17:46.470337024,-0.03954201936721802,0.9528777003288269,0.3005726635456085,-0.00238942401483655,-0.000601002131588757,0.0011884382693097,1611314000000
05/14/26 20:17:46.471336960,-0.03946388512849808,0.9531995058059692,0.3009808957576752,0.0009836654644459486,-0.000410978333093226,0.0003672378370538354,1611315000000
05/14/26 20:17:46.472337408,-0.03907052055001259,0.9533684849739075,0.3015418350696564,0.002381543163210154,9.868707275018096e-05,0.0005141585133969784,1611316000000
05/14/26 20:17:46.473337344,-0.03878752887248993,0.9533176422119141,0.3017690777778625,0.003190387971699238,-0.0003568309766706079,0.0005512203788384795,1611317000000
05/14/26 20:17:46.474337280,-0.03927968069911003,0.9532152414321899,0.3009957075119019,0.001994822174310684,-0.000238933673244901,0.0006863995804451406,1611318000000
05/14/26 20:17:46.475337472,-0.03949479386210442,0.9536532759666443,0.3000648319721222,0.001463344087824225,-0.0003264012048020959,0.0009548846865072846,1611319000000
05/14/26 20:17:46.476337664,-0.03963733091950417,0.953947126865387,0.300116091966629,-0.000394906965084374,0.0003587152459658682,0.001027771504595876,1611320000000
05/14/26 20:17:46.477337600,-0.03957382217049599,0.9538308382034302,0.3002257645130157,0.000891745206899941,0.0004015556769445539,0.0001043688389472663,1611321000000
05/14/26 20:17:46.478337536,-0.03965343534946442,0.9536201357841492,0.3004405796527863,0.001395731465891004,0.001342416973784566,-0.0008226816426031291,1611322000000
05/14/26 20:17:46.479337472,-0.0393967442214489,0.9534770846366882,0.3001175820827484,0.001974022248759866,0.001468822709284723,-9.884184692054987e-06,1611323000000
05/14/26 20:17:46.480337408,-0.03924345597624779,0.9536235928535461,0.2992941737174988,0.001301269046962261,-0.0002391880843788385,8.322074427269399e-05,1611324000000
05/14/26 20:17:46.481337344,-0.03948503732681274,0.9534742832183838,0.2990976870059967,0.0005757358740083873,-0.001470723422244191,-3.662309609353542e-06,1611325000000
05/14/26 20:17:46.482337280,-0.03926707059144974,0.9530667662620544,0.2987758219242096,0.0006366939633153379,-0.002479803748428822,-0.000488479679916054,1611326000000
05/14/26 20:17:46.483337216,-0.03950387239456177,0.9524139165878296,0.2980556488037109,-0.001888686092570424,-0.001328526413999498,-0.0007015796145424247,1611327000000
05/14/26 20:17:46.484337152,-0.0398385152220726,0.9515196681022644,0.2980707585811615,-0.0009989028330892324,-0.001750818104483187,-0.001001427066512406,1611328000000
05/14/26 20:17:46.485337344,-0.04001549258828163,0.9509291052818298,0.2980753183364868,0.001414782833307981,-0.001382395392283797,-0.0006277757347561419,1611329000000
05/14/26 20:17:46.486337536,-0.03977838158607483,0.9507845044136047,0.2977928817272186,0.002350807189941406,-0.002102577360346913,0.0005066493176855147,1611330000000
05/14/26 20:17:46.487337472,-0.03906389698386192,0.9507505893707275,0.2982750236988068,0.001633378793485463,-0.0005311279091984034,0.0009008808992803097,1611331000000
05/14/26 20:17:46.488337408,-0.03889369964599609,0.9505615830421448,0.2985810041427612,-0.0009866965701803565,0.000910215312615037,0.0009010896319523454,1611332000000
05/14/26 20:17:46.489337344,-0.03894905000925064,0.9506046772003174,0.2983790934085846,-0.002539412584155798,0.000551235512830317,0.0006753115449100733,1611333000000
05/14/26 20:17:46.490337280,-0.03896239772439003,0.9508919715881348,0.2981405854225159,-0.004182463977485895,-0.0005803231615573168,0.0002810644218698144,1611334000000
05/14/26 20:17:46.491337216,-0.03878588974475861,0.9509617686271667,0.2978043258190155,-0.001918961061164737,-0.001314606633968651,0.0001675874082138762,1611335000000
05/14/26 20:17:46.492337152,-0.03892723843455315,0.9509769082069397,0.2977258265018463,0.0004949448630213737,-0.001031123683787882,0.0007055758032947779,1611336000000
05/14/26 20:17:46.493337088,-0.03951286897063255,0.9515361189842224,0.297893613576889,0.0002636032295413315,-0.001416522427462041,0.00049831677461043,1611337000000
05/14/26 20:17:46.494337024,-0.03918624669313431,0.9515804052352905,0.2982087135314941,0.002173024928197265,-0.000802420312538743,0.0007828138768672943,1611338000000
05/14/26 20:17:46.495337216,-0.03882983699440956,0.9514057636260986,0.2979129552841187,0.001351283630356193,-0.001003442797809839,0.0008630602969788015,1611339000000
05/14/26 20:17:46.496337152,-0.03864961490035057,0.9518304467201233,0.2979305386543274,-0.0002451156033203006,0.0003327304730191827,-3.798678517341614e-05,1611340000000
05/14/26 20:17:46.497337088,-0.03888989984989166,0.9523939490318298,0.2980275452136993,-4.228716716170311e-05,0.0002836305648088455,-0.0002592874225229025,1611341000000
